"answer","disp_type","fix_duration","internal_node_id","radius","response","rt","time_elapsed","trial_index","trial_type","wheel_num","sbj","resp_error"
204,"test_display",1001.46999955177,"0.0-6.0-2.0","16",178,5802.17500030994,"2949207","22","mouse-reconstruction",3,"1141935996",-26
351,"test_display",999.944999814034,"0.0-6.0-2.1","32",5,15160.9800001606,"2967378","25","mouse-reconstruction",3,"1141935996",14
33,"test_display",1000.89500006288,"0.0-6.0-2.2","08",149,16325.1849999651,"2986716","28","mouse-reconstruction",3,"1141935996",116
131,"test_display",1000.65999990329,"0.0-6.0-2.3","16",127,6797.96499991789,"2996526","31","mouse-reconstruction",3,"1141935996",-4
322,"test_display",1000.72499969974,"0.0-6.0-2.4","16",22,12055.4800000973,"3011592","34","mouse-reconstruction",3,"1141935996",60
169,"test_display",1000.93000009656,"0.0-6.0-2.5","08",176,4637.95499969274,"3019253","37","mouse-reconstruction",3,"1141935996",7
131,"test_display",1001.63000030443,"0.0-6.0-2.6","08",150,7679.03999984264,"3029951","40","mouse-reconstruction",3,"1141935996",19
73,"test_display",1000.36499975249,"0.0-6.0-2.7","32",84,10608.7500001304,"3043576","43","mouse-reconstruction",3,"1141935996",11
301,"test_display",1001.32499961182,"0.0-6.0-2.8","16",300,6140.91500034556,"3052733","46","mouse-reconstruction",3,"1141935996",-1
325,"test_display",1001.30000011995,"0.0-6.0-2.9","02",292,11985.6099998578,"3067735","49","mouse-reconstruction",3,"1141935996",-33
303,"test_display",1001.49000016972,"0.0-6.0-2.10","16",283,4414.03999971226,"3075164","52","mouse-reconstruction",3,"1141935996",-20
135,"test_display",1003.00999963656,"0.0-6.0-2.11","04",117,8085.32000007108,"3086264","55","mouse-reconstruction",3,"1141935996",-18
245,"test_display",1000.22500008345,"0.0-6.0-2.12","16",250,5336.21500013396,"3094617","58","mouse-reconstruction",3,"1141935996",5
143,"test_display",999.614999629557,"0.0-6.0-2.13","32",136,16139.1250002198,"3113771","61","mouse-reconstruction",3,"1141935996",-7
13,"test_display",1001.29000004381,"0.0-6.0-2.14","02",340,7462.92999992147,"3124250","64","mouse-reconstruction",3,"1141935996",-33
6,"test_display",1000.60499971732,"0.0-6.0-2.15","32",3,7968.36500009522,"3135237","67","mouse-reconstruction",3,"1141935996",-3
197,"test_display",1001.33499968797,"0.0-6.0-2.16","32",191,9463.80500029773,"3147714","70","mouse-reconstruction",3,"1141935996",-6
99,"test_display",999.78999979794,"0.0-6.0-2.17","16",92,15763.885000255,"3166492","73","mouse-reconstruction",3,"1141935996",-7
346,"test_display",1001.05000007898,"0.0-6.0-2.18","32",352,10478.3399999142,"3179988","76","mouse-reconstruction",3,"1141935996",6
297,"test_display",1000.78999996185,"0.0-6.0-2.19","02",349,11030.6899999268,"3194036","79","mouse-reconstruction",3,"1141935996",52
108,"test_display",1006.45000021905,"0.0-6.0-2.20","32",114,4402.36499998719,"3201462","82","mouse-reconstruction",3,"1141935996",6
260,"test_display",1000.02499995753,"0.0-6.0-2.21","08",280,5926.19000002742,"3210405","85","mouse-reconstruction",3,"1141935996",20
231,"test_display",1000.8050003089,"0.0-6.0-2.22","04",243,15215.8999997191,"3228643","88","mouse-reconstruction",3,"1141935996",12
67,"test_display",1000.57999975979,"0.0-6.0-2.23","32",87,8932.84999998286,"3240595","91","mouse-reconstruction",3,"1141935996",20
196,"test_display",1001.42499990761,"0.0-6.0-2.24","16",179,6272.16499997303,"3249885","94","mouse-reconstruction",3,"1141935996",-17
246,"test_display",1001.64999999106,"0.0-6.0-2.25","16",236,11830.8950001374,"3264736","97","mouse-reconstruction",3,"1141935996",-10
124,"test_display",1001.10499979928,"0.0-6.0-2.26","08",108,12345.3450002708,"3280098","100","mouse-reconstruction",3,"1141935996",-16
168,"test_display",1000.0800001435,"0.0-6.0-2.27","04",150,10912.5550002791,"3294026","103","mouse-reconstruction",3,"1141935996",-18
303,"test_display",1000.8800001815,"0.0-6.0-2.28","02",312,2555.53000001237,"3299600","106","mouse-reconstruction",3,"1141935996",9
73,"test_display",1001.56000023708,"0.0-6.0-2.29","16",82,22298.8350000232,"3324916","109","mouse-reconstruction",3,"1141935996",9
172,"test_display",1001.48000009358,"0.0-6.0-2.30","16",177,8003.41500015929,"3335939","112","mouse-reconstruction",3,"1141935996",5
142,"test_display",1000.95500005409,"0.0-6.0-2.31","02",103,9475.52500013262,"3348439","115","mouse-reconstruction",3,"1141935996",-39
300,"test_display",1000.32499991357,"0.0-6.0-2.32","04",287,9583.30000005662,"3361040","118","mouse-reconstruction",3,"1141935996",-13
272,"test_display",1000.56000007316,"0.0-6.0-2.33","08",281,7744.24500018358,"3371801","121","mouse-reconstruction",3,"1141935996",9
74,"test_display",1000.77500008047,"0.0-6.0-2.34","08",82,12643.4499998577,"3387461","124","mouse-reconstruction",3,"1141935996",8
128,"test_display",1000.800000038,"0.0-6.0-2.35","02",52,4847.41500020027,"3395327","127","mouse-reconstruction",3,"1141935996",-76
218,"test_display",1000.2200002782,"0.0-6.0-2.36","02",239,15942.2599999234,"3414284","130","mouse-reconstruction",3,"1141935996",21
259,"test_display",1000.98500028253,"0.0-6.0-2.37","02",256,5465.65999975428,"3422766","133","mouse-reconstruction",3,"1141935996",-3
120,"test_display",1000.1349998638,"0.0-6.0-2.38","16",116,13683.2350003533,"3439467","136","mouse-reconstruction",3,"1141935996",-4
47,"test_display",999.774999916553,"0.0-6.0-2.39","08",96,9626.05499988422,"3452110","139","mouse-reconstruction",3,"1141935996",49
157,"test_display",1001.45500013605,"0.0-6.0-2.40","04",146,3958.28999998048,"3459086","142","mouse-reconstruction",3,"1141935996",-11
18,"test_display",1000.41999993846,"0.0-6.0-2.41","08",14,15678.6750000902,"3477784","145","mouse-reconstruction",3,"1141935996",-4
105,"test_display",999.525000341237,"0.0-6.0-2.42","08",100,5042.94000007212,"3485844","148","mouse-reconstruction",3,"1141935996",-5
199,"test_display",1000.88999979198,"0.0-6.0-2.43","02",207,8705.55499987677,"3497565","151","mouse-reconstruction",3,"1141935996",8
23,"test_display",1001.81999988854,"0.0-6.0-2.44","02",280,6031.81999968365,"3506613","154","mouse-reconstruction",3,"1141935996",-103
354,"test_display",999.64000005275,"0.0-6.0-2.45","16",352,7432.59500013664,"3517065","157","mouse-reconstruction",3,"1141935996",-2
41,"test_display",1001.01499957964,"0.0-6.0-2.46","02",46,11112.1800001711,"3531196","160","mouse-reconstruction",3,"1141935996",5
160,"test_display",1001.00499996915,"0.0-6.0-2.47","02",162,12779.9749998376,"3546995","163","mouse-reconstruction",3,"1141935996",2
115,"test_display",1000.6450000219,"0.0-6.0-2.48","04",107,7577.9099999927,"3557591","166","mouse-reconstruction",3,"1141935996",-8
36,"test_display",999.875000212342,"0.0-6.0-2.49","02",103,3511.76000013947,"3564121","169","mouse-reconstruction",3,"1141935996",67
44,"test_display",999.694999773055,"0.0-6.0-2.50","16",47,25242.5500000827,"3592383","172","mouse-reconstruction",3,"1141935996",3
77,"test_display",999.49000030756,"0.0-6.0-2.51","02",24,6084.1299998574,"3601483","175","mouse-reconstruction",3,"1141935996",-53
179,"test_display",1000.5100001581,"0.0-6.0-2.52","32",180,23216.3450000808,"3627713","178","mouse-reconstruction",3,"1141935996",1
148,"test_display",1001.2249997817,"0.0-6.0-2.53","32",161,7215.76500032097,"3637947","181","mouse-reconstruction",3,"1141935996",13
0,"test_display",1000.35000033677,"0.0-8.0-2.0","04",347,9408.1199998036,"3660591","185","mouse-reconstruction",3,"1141935996",-13
326,"test_display",1000.79499976709,"0.0-8.0-2.1","16",338,8068.80499981344,"3671678","188","mouse-reconstruction",3,"1141935996",12
267,"test_display",1000.48499973491,"0.0-8.0-2.2","32",256,14508.2800001837,"3689205","191","mouse-reconstruction",3,"1141935996",-11
238,"test_display",1000.17000036314,"0.0-8.0-2.3","16",240,15542.3849998042,"3707765","194","mouse-reconstruction",3,"1141935996",2
32,"test_display",1001.58500019461,"0.0-8.0-2.4","16",69,10822.0199998468,"3721605","197","mouse-reconstruction",3,"1141935996",37
229,"test_display",1002.03999970108,"0.0-8.0-2.5","08",227,6354.34000007808,"3730980","200","mouse-reconstruction",3,"1141935996",-2
267,"test_display",1000.04999991506,"0.0-8.0-2.6","16",265,5128.40500008315,"3739125","203","mouse-reconstruction",3,"1141935996",-2
148,"test_display",1000.47500012442,"0.0-8.0-2.7","02",212,10668.2699997909,"3752810","206","mouse-reconstruction",3,"1141935996",64
82,"test_display",1001.2300000526,"0.0-8.0-2.8","02",51,7260.36000018939,"3763086","209","mouse-reconstruction",3,"1141935996",-31
355,"test_display",1000.63499994576,"0.0-8.0-2.9","32",354,10708.6149998941,"3776814","212","mouse-reconstruction",3,"1141935996",-1
222,"test_display",1000.05999999121,"0.0-8.0-2.10","16",233,8993.84499993175,"3788827","215","mouse-reconstruction",3,"1141935996",11
246,"test_display",1000.80499984324,"0.0-8.0-2.11","32",254,8483.07500034571,"3800328","218","mouse-reconstruction",3,"1141935996",8
209,"test_display",1001.92499998957,"0.0-8.0-2.12","16",205,8813.50000016391,"3812163","221","mouse-reconstruction",3,"1141935996",-4
142,"test_display",999.505000188947,"0.0-8.0-2.13","16",143,8685.2549999021,"3823876","224","mouse-reconstruction",3,"1141935996",1
335,"test_display",1000.33499998972,"0.0-8.0-2.14","04",19,14935.7449999079,"3841824","227","mouse-reconstruction",3,"1141935996",44
27,"test_display",1001.04499980807,"0.0-8.0-2.15","04",37,5987.69000032917,"3850827","230","mouse-reconstruction",3,"1141935996",10
222,"test_display",1000.44499989599,"0.0-8.0-2.16","04",248,11509.8950001411,"3865355","233","mouse-reconstruction",3,"1141935996",26
303,"test_display",1001.1499999091,"0.0-8.0-2.17","08",309,5704.89499997348,"3874080","236","mouse-reconstruction",3,"1141935996",6
347,"test_display",1000.13000005856,"0.0-8.0-2.18","16",346,5845.79000016674,"3882943","239","mouse-reconstruction",3,"1141935996",-1
176,"test_display",1000.74000004679,"0.0-8.0-2.19","02",232,5411.70499986038,"3891373","242","mouse-reconstruction",3,"1141935996",56
79,"test_display",1000.75999973342,"0.0-8.0-2.20","08",70,20642.2650003806,"3915032","245","mouse-reconstruction",3,"1141935996",-9
351,"test_display",999.940000008792,"0.0-8.0-2.21","08",349,6812.88000009954,"3924861","248","mouse-reconstruction",3,"1141935996",-2
349,"test_display",1000.89999986812,"0.0-8.0-2.22","04",348,8960.83000022918,"3936842","251","mouse-reconstruction",3,"1141935996",-1
264,"test_display",1000.79500023276,"0.0-8.0-2.23","08",264,7146.94999996573,"3947005","254","mouse-reconstruction",3,"1141935996",0
265,"test_display",1000.77500008047,"0.0-8.0-2.24","04",271,5035.28500022367,"3955055","257","mouse-reconstruction",3,"1141935996",6
302,"test_display",1000.08999975398,"0.0-8.0-2.25","16",296,2892.40500004962,"3960967","260","mouse-reconstruction",3,"1141935996",-6
146,"test_display",1000.96999993548,"0.0-8.0-2.26","32",140,8623.12499992549,"3972614","263","mouse-reconstruction",3,"1141935996",-6
338,"test_display",1001.18499994278,"0.0-8.0-2.27","16",337,8600.71000037715,"3984229","266","mouse-reconstruction",3,"1141935996",-1
293,"test_display",999.730000272393,"0.0-8.0-2.28","16",284,10113.6399996467,"3997360","269","mouse-reconstruction",3,"1141935996",-9
241,"test_display",1000.79500023276,"0.0-8.0-2.29","04",230,10240.4950000346,"4010617","272","mouse-reconstruction",3,"1141935996",-11
177,"test_display",1000.93000009656,"0.0-8.0-2.30","16",173,6054.59500011057,"4019686","275","mouse-reconstruction",3,"1141935996",-4
109,"test_display",1000.70000020787,"0.0-8.0-2.31","16",106,9761.15499995649,"4032463","278","mouse-reconstruction",3,"1141935996",-3
266,"test_display",1000.86499983445,"0.0-8.0-2.32","02",290,5842.5250002183,"4041323","281","mouse-reconstruction",3,"1141935996",24
261,"test_display",1000.59999991208,"0.0-8.0-2.33","16",262,4706.47000009194,"4049046","284","mouse-reconstruction",3,"1141935996",1
188,"test_display",1000.52000023425,"0.0-8.0-2.34","02",197,2684.02000004426,"4054747","287","mouse-reconstruction",3,"1141935996",9
184,"test_display",1006.32000016049,"0.0-8.0-2.35","08",187,4398.96999998018,"4062165","290","mouse-reconstruction",3,"1141935996",3
247,"test_display",1000.34000026062,"0.0-8.0-2.36","16",243,15375.7299999706,"4080558","293","mouse-reconstruction",3,"1141935996",-4
136,"test_display",1001.09499972314,"0.0-8.0-2.37","32",138,6029.5150000602,"4089605","296","mouse-reconstruction",3,"1141935996",2
292,"test_display",1001.13999983296,"0.0-8.0-2.38","04",276,4916.15000041202,"4097538","299","mouse-reconstruction",3,"1141935996",-16
81,"test_display",999.884999822825,"0.0-8.0-2.39","08",85,12276.8549998291,"4112831","302","mouse-reconstruction",3,"1141935996",4
202,"test_display",1000.62499986961,"0.0-8.0-2.40","08",204,20678.9049999788,"4136527","305","mouse-reconstruction",3,"1141935996",2
205,"test_display",1001.0150000453,"0.0-8.0-2.41","04",206,9526.30499983206,"4149070","308","mouse-reconstruction",3,"1141935996",1
346,"test_display",1001.21499970555,"0.0-8.0-2.42","02",75,4343.72000023723,"4156432","311","mouse-reconstruction",3,"1141935996",89
239,"test_display",1002.02000001445,"0.0-8.0-2.43","32",216,10853.0999999493,"4170300","314","mouse-reconstruction",3,"1141935996",-23
260,"test_display",1000.37000002339,"0.0-8.0-2.44","16",262,6655.32999997959,"4179973","317","mouse-reconstruction",3,"1141935996",2
291,"test_display",1001.41000002623,"0.0-8.0-2.45","32",270,11784.5799997449,"4194770","320","mouse-reconstruction",3,"1141935996",-21
30,"test_display",1002.68999999389,"0.0-8.0-2.46","04",32,10807.2950001806,"4208589","323","mouse-reconstruction",3,"1141935996",2
80,"test_display",1001.29000004381,"0.0-8.0-2.47","08",90,6717.83499978483,"4218327","326","mouse-reconstruction",3,"1141935996",10
149,"test_display",1001.03500019759,"0.0-8.0-2.48","16",73,22925.1549998298,"4244271","329","mouse-reconstruction",3,"1141935996",-76
344,"test_display",1000.71500008926,"0.0-8.0-2.49","02",267,6602.27999975905,"4253890","332","mouse-reconstruction",3,"1141935996",-77
244,"test_display",1000.19499985501,"0.0-8.0-2.50","32",245,7742.70999990404,"4264652","335","mouse-reconstruction",3,"1141935996",1
320,"test_display",1000.17500016838,"0.0-8.0-2.51","08",325,6780.55500006303,"4274450","338","mouse-reconstruction",3,"1141935996",5
8,"test_display",999.549999833107,"0.0-8.0-2.52","16",7,6267.10500009358,"4283725","341","mouse-reconstruction",3,"1141935996",-1
322,"test_display",1000.44000009075,"0.0-8.0-2.53","08",326,11156.9099999033,"4297899","344","mouse-reconstruction",3,"1141935996",4
106,"test_display",1005.55999996141,"0.0-10.0-2.0","16",83,15298.1300000101,"4324496","348","mouse-reconstruction",3,"1141935996",-23
235,"test_display",1000.76500000432,"0.0-10.0-2.1","02",219,8638.66499997675,"4336154","351","mouse-reconstruction",3,"1141935996",-16
311,"test_display",1001.49999978021,"0.0-10.0-2.2","02",264,9029.98500037938,"4348203","354","mouse-reconstruction",3,"1141935996",-47
46,"test_display",1001.04000000283,"0.0-10.0-2.3","08",51,4301.34500004351,"4355519","357","mouse-reconstruction",3,"1141935996",5
147,"test_display",1001.13999983296,"0.0-10.0-2.4","08",153,7579.0599999018,"4366114","360","mouse-reconstruction",3,"1141935996",6
175,"test_display",1000.00999961048,"0.0-10.0-2.5","32",177,7894.92500014603,"4377025","363","mouse-reconstruction",3,"1141935996",2
340,"test_display",1001.57500011846,"0.0-10.0-2.6","08",339,7394.57500027493,"4387438","366","mouse-reconstruction",3,"1141935996",-1
191,"test_display",1000.38000009954,"0.0-10.0-2.7","16",195,7184.07499976456,"4397639","369","mouse-reconstruction",3,"1141935996",4
81,"test_display",1001.15500018001,"0.0-10.0-2.8","02",55,8357.09000006318,"4409014","372","mouse-reconstruction",3,"1141935996",-26
307,"test_display",1000.87500037625,"0.0-10.0-2.9","04",255,10583.8799998164,"4422614","375","mouse-reconstruction",3,"1141935996",-52
344,"test_display",1002.00500013307,"0.0-10.0-2.10","04",344,13074.2649999447,"4438709","378","mouse-reconstruction",3,"1141935996",0
103,"test_display",1001.47999962792,"0.0-10.0-2.11","08",108,11922.5900000893,"4453651","381","mouse-reconstruction",3,"1141935996",5
111,"test_display",1001.33500015363,"0.0-10.0-2.12","32",112,7383.60499963164,"4464053","384","mouse-reconstruction",3,"1141935996",1
20,"test_display",999.74500015378,"0.0-10.0-2.13","08",17,7248.99500003085,"4474317","387","mouse-reconstruction",3,"1141935996",-3
170,"test_display",1000.98499981686,"0.0-10.0-2.14","04",5,7081.87000034377,"4484415","390","mouse-reconstruction",3,"1141935996",-165
269,"test_display",1000.49499981105,"0.0-10.0-2.15","04",307,5915.32000014558,"4493352","393","mouse-reconstruction",3,"1141935996",38
4,"test_display",1000.5100001581,"0.0-10.0-2.16","04",349,6198.68999999017,"4502567","396","mouse-reconstruction",3,"1141935996",-15
63,"test_display",1000.05500018597,"0.0-10.0-2.17","02",46,9191.79999968037,"4514775","399","mouse-reconstruction",3,"1141935996",-17
223,"test_display",1001.03500019759,"0.0-10.0-2.18","32",226,8000.33000018448,"4525793","402","mouse-reconstruction",3,"1141935996",3
68,"test_display",1001.64999999106,"0.0-10.0-2.19","04",64,8529.28999997675,"4537341","405","mouse-reconstruction",3,"1141935996",-4
27,"test_display",1000.67499978468,"0.0-10.0-2.20","16",39,17547.940000426,"4557908","408","mouse-reconstruction",3,"1141935996",12
191,"test_display",1001.30999973044,"0.0-10.0-2.21","04",188,6987.57500015199,"4567911","411","mouse-reconstruction",3,"1141935996",-3
319,"test_display",1001.11499987543,"0.0-10.0-2.22","04",324,16286.7600000463,"4587212","414","mouse-reconstruction",3,"1141935996",5
291,"test_display",1001.39499967918,"0.0-10.0-2.23","16",289,4933.30000014976,"4595168","417","mouse-reconstruction",3,"1141935996",-2
135,"test_display",1000.49000000581,"0.0-10.0-2.24","32",229,9820.06499962881,"4608005","420","mouse-reconstruction",3,"1141935996",94
115,"test_display",1001.05000007898,"0.0-10.0-2.25","02",112,2750.27499999851,"4613778","423","mouse-reconstruction",3,"1141935996",-3
3,"test_display",1000.22999988869,"0.0-10.0-2.26","32",3,6964.42499989644,"4623759","426","mouse-reconstruction",3,"1141935996",0
357,"test_display",1002.04500043765,"0.0-10.0-2.27","08",6,5430.80500001088,"4632207","429","mouse-reconstruction",3,"1141935996",9
57,"test_display",1000.47999992967,"0.0-10.0-2.28","04",34,16643.1350000203,"4651864","432","mouse-reconstruction",3,"1141935996",-23
43,"test_display",1001.02500012144,"0.0-10.0-2.29","02",100,2179.2449997738,"4657062","435","mouse-reconstruction",3,"1141935996",57
309,"test_display",1001.99999986216,"0.0-10.0-2.30","08",300,5054.6200000681,"4665133","438","mouse-reconstruction",3,"1141935996",-9
17,"test_display",1000.42500020936,"0.0-10.0-2.31","04",14,7871.90999975428,"4676023","441","mouse-reconstruction",3,"1141935996",-3
42,"test_display",1000.98000001162,"0.0-10.0-2.32","32",51,12712.3600002378,"4691751","444","mouse-reconstruction",3,"1141935996",9
175,"test_display",1000.54500019178,"0.0-10.0-2.33","08",175,5608.26000012457,"4700378","447","mouse-reconstruction",3,"1141935996",0
201,"test_display",1000.26499992236,"0.0-10.0-2.34","04",193,4652.60999975726,"4708046","450","mouse-reconstruction",3,"1141935996",-8
70,"test_display",1001.7349999398,"0.0-10.0-2.35","02",76,2040.92499986291,"4713101","453","mouse-reconstruction",3,"1141935996",6
331,"test_display",999.634999781847,"0.0-10.0-2.36","08",316,6188.52500012144,"4722305","456","mouse-reconstruction",3,"1141935996",-15
146,"test_display",1000.22999988869,"0.0-10.0-2.37","04",154,4787.09500003606,"4730103","459","mouse-reconstruction",3,"1141935996",8
185,"test_display",1004.08499967307,"0.0-10.0-2.38","08",182,7926.96500010788,"4741048","462","mouse-reconstruction",3,"1141935996",-3
310,"test_display",1001.11999968067,"0.0-10.0-2.39","02",309,4768.12499994412,"4748832","465","mouse-reconstruction",3,"1141935996",-1
332,"test_display",1000.26000011712,"0.0-10.0-2.40","02",330,6615.91499997303,"4758462","468","mouse-reconstruction",3,"1141935996",-2
292,"test_display",1000.66000036895,"0.0-10.0-2.41","08",295,2986.51999980211,"4764465","471","mouse-reconstruction",3,"1141935996",3
320,"test_display",1000.48500020057,"0.0-10.0-2.42","04",309,14423.6449999735,"4781905","474","mouse-reconstruction",3,"1141935996",-11
203,"test_display",1001.3049999252,"0.0-10.0-2.43","02",191,6073.81500024348,"4790998","477","mouse-reconstruction",3,"1141935996",-12
84,"test_display",1000.57499995455,"0.0-10.0-2.44","04",63,12830.4850002751,"4806844","480","mouse-reconstruction",3,"1141935996",-21
290,"test_display",1000.01500034705,"0.0-10.0-2.45","08",309,4158.68499968201,"4814016","483","mouse-reconstruction",3,"1141935996",19
308,"test_display",1000.13000005856,"0.0-10.0-2.46","32",304,7427.1650002338,"4824459","486","mouse-reconstruction",3,"1141935996",-4
36,"test_display",1000.95000024885,"0.0-10.0-2.47","32",36,7515.05499985069,"4834990","489","mouse-reconstruction",3,"1141935996",0
92,"test_display",1000.55500026792,"0.0-10.0-2.48","02",92,3259.97499981895,"4841266","492","mouse-reconstruction",3,"1141935996",0
64,"test_display",1001.07999984175,"0.0-10.0-2.49","08",85,17764.6150002256,"4862043","495","mouse-reconstruction",3,"1141935996",21
16,"test_display",1000.28000026941,"0.0-10.0-2.50","08",26,6387.27999990806,"4871447","498","mouse-reconstruction",3,"1141935996",10
272,"test_display",1000.52500003949,"0.0-10.0-2.51","02",263,4988.1400000304,"4879453","501","mouse-reconstruction",3,"1141935996",-9
130,"test_display",1001.29000004381,"0.0-10.0-2.52","16",132,5055.79499993473,"4887528","504","mouse-reconstruction",3,"1141935996",2
248,"test_display",1000.639999751,"0.0-10.0-2.53","02",272,5954.02000006288,"4896505","507","mouse-reconstruction",3,"1141935996",24
310,"test_display",1001.54499989003,"0.0-12.0-2.0","32",309,6471.11999988556,"5053493","511","mouse-reconstruction",3,"1141935996",-1
255,"test_display",999.995000194758,"0.0-12.0-2.1","04",266,6964.52500019222,"5063473","514","mouse-reconstruction",3,"1141935996",11
53,"test_display",1001.35000003502,"0.0-12.0-2.2","16",76,5589.92999978364,"5072073","517","mouse-reconstruction",3,"1141935996",23
279,"test_display",999.95500035584,"0.0-12.0-2.3","32",286,4927.87500005215,"5080019","520","mouse-reconstruction",3,"1141935996",7
96,"test_display",999.605000019073,"0.0-12.0-2.4","16",88,12053.4299998544,"5095093","523","mouse-reconstruction",3,"1141935996",-8
96,"test_display",1001.63499964401,"0.0-12.0-2.5","04",95,11929.2800002731,"5110040","526","mouse-reconstruction",3,"1141935996",-1
5,"test_display",999.97999984771,"0.0-12.0-2.6","16",6,6151.99499996379,"5119211","529","mouse-reconstruction",3,"1141935996",1
231,"test_display",1000.76500000432,"0.0-12.0-2.7","02",246,2545.00499973074,"5124782","532","mouse-reconstruction",3,"1141935996",15
251,"test_display",1000.53500011563,"0.0-12.0-2.8","08",248,4494.59999985993,"5132298","535","mouse-reconstruction",3,"1141935996",-3
84,"test_display",1001.80999981239,"0.0-12.0-2.9","32",83,5208.64500012249,"5140518","538","mouse-reconstruction",3,"1141935996",-1
261,"test_display",1002.36000027508,"0.0-12.0-2.10","04",277,4296.48000001907,"5147830","541","mouse-reconstruction",3,"1141935996",16
193,"test_display",1001.47499982268,"0.0-12.0-2.11","32",193,5703.74500006437,"5156556","544","mouse-reconstruction",3,"1141935996",0
2,"test_display",1000.92499982566,"0.0-12.0-2.12","32",2,12545.8499998786,"5172122","547","mouse-reconstruction",3,"1141935996",0
348,"test_display",1000.29000034556,"0.0-12.0-2.13","02",148,6080.42000001296,"5181219","550","mouse-reconstruction",3,"1141935996",160
256,"test_display",999.585000332445,"0.0-12.0-2.14","04",321,3419.89000001922,"5187655","553","mouse-reconstruction",3,"1141935996",65
312,"test_display",1000.75000012293,"0.0-12.0-2.15","32",314,8809.98499970883,"5199482","556","mouse-reconstruction",3,"1141935996",2
3,"test_display",1000.67500025034,"0.0-12.0-2.16","02",272,3148.44499994069,"5205648","559","mouse-reconstruction",3,"1141935996",-91
54,"test_display",1000.75500039384,"0.0-12.0-2.17","16",54,17371.0799999535,"5226037","562","mouse-reconstruction",3,"1141935996",0
38,"test_display",1000.10999990627,"0.0-12.0-2.18","32",34,4104.53000012785,"5233156","565","mouse-reconstruction",3,"1141935996",-4
93,"test_display",1000.64999982715,"0.0-12.0-2.19","32",92,10993.7800001353,"5247169","568","mouse-reconstruction",3,"1141935996",-1
180,"test_display",1001.01999985054,"0.0-12.0-2.20","16",178,3461.68000018224,"5253649","571","mouse-reconstruction",3,"1141935996",-2
280,"test_display",1000.74499985203,"0.0-12.0-2.21","04",286,5061.57500017434,"5261727","574","mouse-reconstruction",3,"1141935996",6
52,"test_display",1001.79999973625,"0.0-12.0-2.22","32",48,2510.31000027433,"5267254","577","mouse-reconstruction",3,"1141935996",-4
105,"test_display",1000.4300000146,"0.0-12.0-2.23","16",103,2989.70000026748,"5273262","580","mouse-reconstruction",3,"1141935996",-2
190,"test_display",1000.66500017419,"0.0-12.0-2.24","32",188,7688.28999996185,"5283967","583","mouse-reconstruction",3,"1141935996",-2
148,"test_display",1000.25999965146,"0.0-12.0-2.25","04",179,6503.31000005826,"5293487","586","mouse-reconstruction",3,"1141935996",31
212,"test_display",1000,"0.0-12.0-2.26","32",199,6201.66000025347,"5302707","589","mouse-reconstruction",3,"1141935996",-13
36,"test_display",1002.48999986798,"0.0-12.0-2.27","04",42,9931.00000033155,"5315657","592","mouse-reconstruction",3,"1141935996",6
42,"test_display",1000.70000020787,"0.0-12.0-2.28","04",44,5080.38499997929,"5323753","595","mouse-reconstruction",3,"1141935996",2
239,"test_display",1002.01999954879,"0.0-12.0-2.29","08",232,7736.40000028536,"5334501","598","mouse-reconstruction",3,"1141935996",-7
102,"test_display",1001.4450000599,"0.0-12.0-2.30","02",115,5599.52999977395,"5343118","601","mouse-reconstruction",3,"1141935996",13
67,"test_display",999.839999713004,"0.0-12.0-2.31","16",65,4210.36000037566,"5350345","604","mouse-reconstruction",3,"1141935996",-2
254,"test_display",1000.05500018597,"0.0-12.0-2.32","08",295,3436.1099996604,"5356796","607","mouse-reconstruction",3,"1141935996",41
131,"test_display",1001.1499999091,"0.0-12.0-2.33","02",127,4010.42499998584,"5363826","610","mouse-reconstruction",3,"1141935996",-4
125,"test_display",1000.83500007167,"0.0-12.0-2.34","02",114,3760.42499998584,"5370603","613","mouse-reconstruction",3,"1141935996",-11
174,"test_display",1002.2450000979,"0.0-12.0-2.35","16",181,5403.56000000611,"5379023","616","mouse-reconstruction",3,"1141935996",7
157,"test_display",999.78999979794,"0.0-12.0-2.36","08",157,5681.95500038564,"5387722","619","mouse-reconstruction",3,"1141935996",0
64,"test_display",1000.57999975979,"0.0-12.0-2.37","04",74,6926.27499997616,"5397664","622","mouse-reconstruction",3,"1141935996",10
213,"test_display",1001.20500009507,"0.0-12.0-2.38","32",219,9495.56999979541,"5410175","625","mouse-reconstruction",3,"1141935996",6
132,"test_display",1000.83999987692,"0.0-12.0-2.39","04",119,7268.82999995723,"5420462","628","mouse-reconstruction",3,"1141935996",-13
22,"test_display",1000.05999999121,"0.0-12.0-2.40","32",69,6473.66000013426,"5429951","631","mouse-reconstruction",3,"1141935996",47
158,"test_display",1000.78500015661,"0.0-12.0-2.41","08",156,2311.25500006601,"5435279","634","mouse-reconstruction",3,"1141935996",-2
71,"test_display",999.620000366122,"0.0-12.0-2.42","04",78,6442.29499995708,"5444732","637","mouse-reconstruction",3,"1141935996",7
24,"test_display",1000.27000019327,"0.0-12.0-2.43","02",148,4245.70500012487,"5451995","640","mouse-reconstruction",3,"1141935996",124
291,"test_display",1001.15999998525,"0.0-12.0-2.44","02",328,3393.17999966443,"5458406","643","mouse-reconstruction",3,"1141935996",37
161,"test_display",1000.88499998674,"0.0-12.0-2.45","04",162,7980.62000004575,"5469404","646","mouse-reconstruction",3,"1141935996",1
89,"test_display",1001.38999987394,"0.0-12.0-2.46","32",89,5952.02000020072,"5478374","649","mouse-reconstruction",3,"1141935996",0
333,"test_display",1000.54500019178,"0.0-12.0-2.47","04",336,6356.16499977186,"5487746","652","mouse-reconstruction",3,"1141935996",3
48,"test_display",1000.32500037923,"0.0-12.0-2.48","32",44,17024.1649998352,"5507787","655","mouse-reconstruction",3,"1141935996",-4
76,"test_display",1000.80499984324,"0.0-12.0-2.49","16",60,4124.12000028417,"5514929","658","mouse-reconstruction",3,"1141935996",-16
242,"test_display",1000.5850000307,"0.0-12.0-2.50","32",242,4522.05000026152,"5522474","661","mouse-reconstruction",3,"1141935996",0
179,"test_display",999.909999780357,"0.0-12.0-2.51","02",177,7908.72499998659,"5533399","664","mouse-reconstruction",3,"1141935996",-2
307,"test_display",1001.38999987394,"0.0-12.0-2.52","08",308,3698.49000032991,"5540124","667","mouse-reconstruction",3,"1141935996",1
212,"test_display",1003.00000002608,"0.0-12.0-2.53","16",214,4149.0899999626,"5547295","670","mouse-reconstruction",3,"1141935996",2
152,"test_display",1000.97499974072,"0.0-14.0-2.0","16",144,3842.6000000909,"5556590","674","mouse-reconstruction",3,"1141935996",-8
212,"test_display",1000.35500014201,"0.0-14.0-2.1","04",177,2422.50500014052,"5562029","677","mouse-reconstruction",3,"1141935996",-35
332,"test_display",1001.00499996915,"0.0-14.0-2.2","32",332,2661.68000036851,"5567707","680","mouse-reconstruction",3,"1141935996",0
299,"test_display",1000.03500003368,"0.0-14.0-2.3","02",289,2907.68000017852,"5573629","683","mouse-reconstruction",3,"1141935996",-10
271,"test_display",1001.06499996036,"0.0-14.0-2.4","02",333,2219.59500014782,"5578867","686","mouse-reconstruction",3,"1141935996",62
295,"test_display",999.969999771565,"0.0-14.0-2.5","32",290,7004.11500036716,"5588888","689","mouse-reconstruction",3,"1141935996",-5
52,"test_display",999.7049998492,"0.0-14.0-2.6","08",58,5155.54999979213,"5597059","692","mouse-reconstruction",3,"1141935996",6
71,"test_display",1000.40999986231,"0.0-14.0-2.7","32",66,4011.49500021711,"5604089","695","mouse-reconstruction",3,"1141935996",-5
328,"test_display",1001.57000031322,"0.0-14.0-2.8","02",81,3170.40499998257,"5610279","698","mouse-reconstruction",3,"1141935996",113
329,"test_display",1000.91499974951,"0.0-14.0-2.9","32",331,10805.0100002438,"5624103","701","mouse-reconstruction",3,"1141935996",2
116,"test_display",1001.75500009209,"0.0-14.0-2.10","04",55,4163.16499980167,"5631282","704","mouse-reconstruction",3,"1141935996",-61
351,"test_display",1002.8300001286,"0.0-14.0-2.11","16",6,1884.56499995664,"5636183","707","mouse-reconstruction",3,"1141935996",15
2,"test_display",1002.00999993831,"0.0-14.0-2.12","08",6,5097.20499999821,"5644299","710","mouse-reconstruction",3,"1141935996",4
345,"test_display",999.93500020355,"0.0-14.0-2.13","04",255,5142.27499999106,"5652459","713","mouse-reconstruction",3,"1141935996",-90
206,"test_display",1001.08499964699,"0.0-14.0-2.14","08",207,5133.20000004023,"5660609","716","mouse-reconstruction",3,"1141935996",1
2,"test_display",1000.94499997795,"0.0-14.0-2.15","16",20,11713.844999671,"5675340","719","mouse-reconstruction",3,"1141935996",18
128,"test_display",1001.64500018582,"0.0-14.0-2.16","32",103,11786.5499998443,"5690145","722","mouse-reconstruction",3,"1141935996",-25
262,"test_display",1000.69499993697,"0.0-14.0-2.17","32",259,2885.22000005469,"5696044","725","mouse-reconstruction",3,"1141935996",-3
199,"test_display",1000.7250001654,"0.0-14.0-2.18","04",191,11786.8200000376,"5710847","728","mouse-reconstruction",3,"1141935996",-8
227,"test_display",1001.24000012875,"0.0-14.0-2.19","16",225,2889.63499991223,"5716755","731","mouse-reconstruction",3,"1141935996",-2
111,"test_display",1000.43499981984,"0.0-14.0-2.20","02",131,2946.84500014409,"5722720","734","mouse-reconstruction",3,"1141935996",20
145,"test_display",1001.53000000864,"0.0-14.0-2.21","02",320,3093.48999988288,"5728831","737","mouse-reconstruction",3,"1141935996",175
85,"test_display",1000.58000022545,"0.0-14.0-2.22","04",71,2218.76499988139,"5734064","740","mouse-reconstruction",3,"1141935996",-14
209,"test_display",1001.15999998525,"0.0-14.0-2.23","32",211,4243.94499976188,"5741325","743","mouse-reconstruction",3,"1141935996",2
180,"test_display",1002.06999992952,"0.0-14.0-2.24","04",182,6098.29000011086,"5750440","746","mouse-reconstruction",3,"1141935996",2
186,"test_display",1000.89500006288,"0.0-14.0-2.25","02",243,3772.66500005499,"5757232","749","mouse-reconstruction",3,"1141935996",57
256,"test_display",1001.91499991342,"0.0-14.0-2.26","02",272,4739.51999982819,"5764992","752","mouse-reconstruction",3,"1141935996",16
97,"test_display",1000.11499971151,"0.0-14.0-2.27","08",47,6131.02500000969,"5774141","755","mouse-reconstruction",3,"1141935996",-50
243,"test_display",1000.89999986812,"0.0-14.0-2.28","08",229,2247.81000008807,"5779406","758","mouse-reconstruction",3,"1141935996",-14
116,"test_display",999.925000127405,"0.0-14.0-2.29","32",101,3329.28999979049,"5785749","761","mouse-reconstruction",3,"1141935996",-15
35,"test_display",1001.04999961331,"0.0-14.0-2.30","16",81,1780.56999994442,"5790547","764","mouse-reconstruction",3,"1141935996",46
290,"test_display",999.954999890178,"0.0-14.0-2.31","16",283,4293.95500011742,"5797858","767","mouse-reconstruction",3,"1141935996",-7
32,"test_display",1002.65500042588,"0.0-14.0-2.32","08",33,3239.05499977991,"5804109","770","mouse-reconstruction",3,"1141935996",1
337,"test_display",1000.39499998093,"0.0-14.0-2.33","32",319,3519.28499992937,"5810645","773","mouse-reconstruction",3,"1141935996",-18
107,"test_display",1000.69000013173,"0.0-14.0-2.34","08",65,2621.36999983341,"5816283","776","mouse-reconstruction",3,"1141935996",-42
9,"test_display",1000.41999993846,"0.0-14.0-2.35","02",38,2473.32999994978,"5821780","779","mouse-reconstruction",3,"1141935996",29
132,"test_display",1000.35499967635,"0.0-14.0-2.36","08",142,2216.510000173,"5827016","782","mouse-reconstruction",3,"1141935996",10
169,"test_display",1000.69499993697,"0.0-14.0-2.37","32",153,2266.07999997213,"5832299","785","mouse-reconstruction",3,"1141935996",-16
227,"test_display",1000.30499976128,"0.0-14.0-2.38","04",217,6233.0100000836,"5841545","788","mouse-reconstruction",3,"1141935996",-10
54,"test_display",1000.68499986082,"0.0-14.0-2.39","02",319,2836.24000009149,"5847403","791","mouse-reconstruction",3,"1141935996",-95
200,"test_display",1001.54999969527,"0.0-14.0-2.40","08",212,4136.12500019372,"5854560","794","mouse-reconstruction",3,"1141935996",12
85,"test_display",1000.97000040114,"0.0-14.0-2.41","16",181,8014.41999990493,"5865593","797","mouse-reconstruction",3,"1141935996",96
101,"test_display",1000.66000036895,"0.0-14.0-2.42","04",78,1781.04499960318,"5870387","800","mouse-reconstruction",3,"1141935996",-23
192,"test_display",1001.26999989152,"0.0-14.0-2.43","08",178,2255.44500024989,"5875672","803","mouse-reconstruction",3,"1141935996",-14
238,"test_display",1000.67499978468,"0.0-14.0-2.44","08",233,1917.05500008538,"5880617","806","mouse-reconstruction",3,"1141935996",-5
235,"test_display",999.825000297278,"0.0-14.0-2.45","32",230,3645.43499983847,"5887279","809","mouse-reconstruction",3,"1141935996",-5
49,"test_display",1000.639999751,"0.0-14.0-2.46","04",88,2601.99500015005,"5892897","812","mouse-reconstruction",3,"1141935996",39
134,"test_display",1002.08000000566,"0.0-14.0-2.47","04",132,2985.74000038207,"5898904","815","mouse-reconstruction",3,"1141935996",-2
294,"test_display",1000.76999980956,"0.0-14.0-2.48","04",319,1755.59999980032,"5903680","818","mouse-reconstruction",3,"1141935996",25
280,"test_display",1000.74999965727,"0.0-14.0-2.49","08",272,2779.66500027105,"5909478","821","mouse-reconstruction",3,"1141935996",-8
206,"test_display",1000.89000025764,"0.0-14.0-2.50","02",345,2535.43499996886,"5915033","824","mouse-reconstruction",3,"1141935996",139
168,"test_display",1000.56499987841,"0.0-14.0-2.51","08",171,6128.21000022814,"5924178","827","mouse-reconstruction",3,"1141935996",3
292,"test_display",1001.37000018731,"0.0-14.0-2.52","32",290,8053.90499997884,"5935247","830","mouse-reconstruction",3,"1141935996",-2
234,"test_display",1001.96000002325,"0.0-14.0-2.53","02",327,5255.01500023529,"5943522","833","mouse-reconstruction",3,"1141935996",93
290,"test_display",999.420000007376,"0.0-6.0-2.0","04",294,6735.21000007167,"105151","22","mouse-reconstruction",4,"2062361839",4
185,"test_display",1001.11000007018,"0.0-6.0-2.1","04",182,4790.47499992885,"112949","25","mouse-reconstruction",4,"2062361839",-3
322,"test_display",1002.73499987088,"0.0-6.0-2.2","08",321,11189.8200002033,"127152","28","mouse-reconstruction",4,"2062361839",-1
226,"test_display",1000.50500012003,"0.0-6.0-2.3","04",225,5409.35000008903,"135569","31","mouse-reconstruction",4,"2062361839",-1
309,"test_display",1000.72000012733,"0.0-6.0-2.4","04",305,3956.69499994256,"142534","34","mouse-reconstruction",4,"2062361839",-4
51,"test_display",999.950000084937,"0.0-6.0-2.5","32",56,6215.57500003837,"151759","37","mouse-reconstruction",4,"2062361839",5
245,"test_display",1000.2899998799,"0.0-6.0-2.6","04",245,4348.56500010937,"159117","40","mouse-reconstruction",4,"2062361839",0
230,"test_display",1000.27499999851,"0.0-6.0-2.7","02",207,5526.6249999404,"167655","43","mouse-reconstruction",4,"2062361839",-23
212,"test_display",999.920000089332,"0.0-6.0-2.8","16",216,1772.36000006087,"172438","46","mouse-reconstruction",4,"2062361839",4
242,"test_display",1002.81500001438,"0.0-6.0-2.9","16",243,6372.24499997683,"181820","49","mouse-reconstruction",4,"2062361839",1
231,"test_display",1000.29999995604,"0.0-6.0-2.10","02",207,6534.6150000114,"191361","52","mouse-reconstruction",4,"2062361839",-24
96,"test_display",999.665000010282,"0.0-6.0-2.11","32",95,4970.36999999546,"199335","55","mouse-reconstruction",4,"2062361839",-1
50,"test_display",1004.41999989562,"0.0-6.0-2.12","08",49,6594.84000015073,"208944","58","mouse-reconstruction",4,"2062361839",-1
194,"test_display",1000.73000020348,"0.0-6.0-2.13","08",184,3159.40999984741,"215114","61","mouse-reconstruction",4,"2062361839",-10
20,"test_display",1000.01999991946,"0.0-6.0-2.14","16",20,9652.54999999888,"227777","64","mouse-reconstruction",4,"2062361839",0
198,"test_display",999.740000115708,"0.0-6.0-2.15","16",198,3240.66999997012,"234025","67","mouse-reconstruction",4,"2062361839",0
201,"test_display",1003.80499986932,"0.0-6.0-2.16","04",200,3015.0900001172,"240051","70","mouse-reconstruction",4,"2062361839",-1
151,"test_display",1001.37499999255,"0.0-6.0-2.17","08",148,6606.36499989778,"249667","73","mouse-reconstruction",4,"2062361839",-3
278,"test_display",1000.90000010096,"0.0-6.0-2.18","02",341,5272.2449998837,"257951","76","mouse-reconstruction",4,"2062361839",63
242,"test_display",999.790000030771,"0.0-6.0-2.19","02",206,4968.38500001468,"265929","79","mouse-reconstruction",4,"2062361839",-36
98,"test_display",1001.39499991201,"0.0-6.0-2.20","32",100,4432.25000007078,"273371","82","mouse-reconstruction",4,"2062361839",2
137,"test_display",1000.32999995165,"0.0-6.0-2.21","02",146,1509.52999992296,"277887","85","mouse-reconstruction",4,"2062361839",9
355,"test_display",1001.06499996036,"0.0-6.0-2.22","04",355,3135.87000011466,"284032","88","mouse-reconstruction",4,"2062361839",0
58,"test_display",1001.27000012435,"0.0-6.0-2.23","02",138,2158.89999992214,"289199","91","mouse-reconstruction",4,"2062361839",80
290,"test_display",1002.68499995582,"0.0-6.0-2.24","02",15,5016.30000001751,"297226","94","mouse-reconstruction",4,"2062361839",85
175,"test_display",1004.195000045,"0.0-6.0-2.25","32",213,6392.50499987975,"306629","97","mouse-reconstruction",4,"2062361839",38
74,"test_display",1000.39499998093,"0.0-6.0-2.26","02",184,1783.36000000127,"311418","100","mouse-reconstruction",4,"2062361839",110
17,"test_display",999.605000019073,"0.0-6.0-2.27","32",24,5137.80000014231,"319563","103","mouse-reconstruction",4,"2062361839",7
165,"test_display",999.890000093728,"0.0-6.0-2.28","08",93,491014.694999903,"813603","106","mouse-reconstruction",4,"2062361839",-72
310,"test_display",999.554999871179,"0.0-6.0-2.29","16",321,5839.33500014246,"822449","109","mouse-reconstruction",4,"2062361839",11
182,"test_display",1000.71499985643,"0.0-6.0-2.30","08",183,4986.53000011109,"830447","112","mouse-reconstruction",4,"2062361839",1
243,"test_display",999.675000086427,"0.0-6.0-2.31","16",244,4829.54999990761,"838286","115","mouse-reconstruction",4,"2062361839",1
356,"test_display",1000.14999997802,"0.0-6.0-2.32","04",348,3214.17500008829,"844508","118","mouse-reconstruction",4,"2062361839",-8
351,"test_display",1000.01000007614,"0.0-6.0-2.33","02",352,1678.79999987781,"849195","121","mouse-reconstruction",4,"2062361839",1
19,"test_display",1003.89500008896,"0.0-6.0-2.34","16",23,2175.74999993667,"854382","124","mouse-reconstruction",4,"2062361839",4
320,"test_display",1000.92000002041,"0.0-6.0-2.35","08",315,4036.98999993503,"861430","127","mouse-reconstruction",4,"2062361839",-5
152,"test_display",1000.9850000497,"0.0-6.0-2.36","32",157,4117.30499984697,"868557","130","mouse-reconstruction",4,"2062361839",5
10,"test_display",999.319999944419,"0.0-6.0-2.37","04",312,3623.78000002354,"875185","133","mouse-reconstruction",4,"2062361839",-58
338,"test_display",999.729999806732,"0.0-6.0-2.38","32",330,8024.80000001378,"886216","136","mouse-reconstruction",4,"2062361839",-8
300,"test_display",1001.0450000409,"0.0-6.0-2.39","16",360,796.640000073239,"890019","139","mouse-reconstruction",4,"2062361839",60
14,"test_display",999.754999997094,"0.0-6.0-2.40","02",281,4919.86500006169,"897943","142","mouse-reconstruction",4,"2062361839",-93
303,"test_display",1000.16500009224,"0.0-6.0-2.41","32",328,5017.99000008032,"905970","145","mouse-reconstruction",4,"2062361839",25
153,"test_display",1000.69999997504,"0.0-6.0-2.42","02",136,2302.07500001416,"911282","148","mouse-reconstruction",4,"2062361839",-17
0,"test_display",1002.77499994263,"0.0-6.0-2.43","32",17,4097.21500007436,"918388","151","mouse-reconstruction",4,"2062361839",17
113,"test_display",1004.04499983415,"0.0-6.0-2.44","32",117,4055.8200001251,"925453","154","mouse-reconstruction",4,"2062361839",4
100,"test_display",1001.30999996327,"0.0-6.0-2.45","32",102,5318.65500006825,"933781","157","mouse-reconstruction",4,"2062361839",2
241,"test_display",1000.26499992236,"0.0-6.0-2.46","32",308,58041.1549999844,"994830","160","mouse-reconstruction",4,"2062361839",67
9,"test_display",1000.06500002928,"0.0-6.0-2.47","16",16,55480.8249999769,"1053319","163","mouse-reconstruction",4,"2062361839",7
294,"test_display",999.679999891669,"0.0-6.0-2.48","32",252,103010.239999974,"1159340","166","mouse-reconstruction",4,"2062361839",-42
223,"test_display",999.945000046864,"0.0-6.0-2.49","08",222,2948.05500004441,"1165297","169","mouse-reconstruction",4,"2062361839",-1
191,"test_display",1000.53000007756,"0.0-6.0-2.50","16",187,4755.39999990724,"1173060","172","mouse-reconstruction",4,"2062361839",-4
213,"test_display",1000.04000007175,"0.0-6.0-2.51","02",351,7700.18499996513,"1183767","175","mouse-reconstruction",4,"2062361839",138
334,"test_display",999.880000017583,"0.0-6.0-2.52","32",333,5235.3900000453,"1192012","178","mouse-reconstruction",4,"2062361839",-1
249,"test_display",1000.46500004828,"0.0-6.0-2.53","04",253,9414.55499990843,"1204435","181","mouse-reconstruction",4,"2062361839",4
237,"test_display",1000.04000007175,"0.0-8.0-2.0","08",240,4015.94000007026,"1214007","185","mouse-reconstruction",4,"2062361839",3
227,"test_display",1001.86499999836,"0.0-8.0-2.1","16",227,4164.8250001017,"1221182","188","mouse-reconstruction",4,"2062361839",0
14,"test_display",1000.00500003807,"0.0-8.0-2.2","08",22,4693.934999872,"1228879","191","mouse-reconstruction",4,"2062361839",8
77,"test_display",1000.00500003807,"0.0-8.0-2.3","16",75,4915.84499995224,"1236805","194","mouse-reconstruction",4,"2062361839",-2
301,"test_display",999.324999982491,"0.0-8.0-2.4","02",265,2971.84000001289,"1242784","197","mouse-reconstruction",4,"2062361839",-36
331,"test_display",1003.6549998913,"0.0-8.0-2.5","02",328,4218.11500005424,"1250014","200","mouse-reconstruction",4,"2062361839",-3
131,"test_display",999.665000010282,"0.0-8.0-2.6","08",131,2973.22000004351,"1255992","203","mouse-reconstruction",4,"2062361839",0
303,"test_display",999.934999970719,"0.0-8.0-2.7","08",310,2626.01000000723,"1261625","206","mouse-reconstruction",4,"2062361839",7
142,"test_display",999.53499995172,"0.0-8.0-2.8","02",162,2958.23999983259,"1267586","209","mouse-reconstruction",4,"2062361839",20
346,"test_display",1001.1199999135,"0.0-8.0-2.9","16",332,3581.87499991618,"1274177","212","mouse-reconstruction",4,"2062361839",-14
94,"test_display",1004.69499989413,"0.0-8.0-2.10","08",96,6194.02500009164,"1283384","215","mouse-reconstruction",4,"2062361839",2
192,"test_display",999.64000005275,"0.0-8.0-2.11","04",183,2969.3350000307,"1289361","218","mouse-reconstruction",4,"2062361839",-9
357,"test_display",1002.17500003055,"0.0-8.0-2.12","08",355,4423.26500010677,"1296792","221","mouse-reconstruction",4,"2062361839",-2
264,"test_display",1000.78999996185,"0.0-8.0-2.13","04",247,3549.4099999778,"1303351","224","mouse-reconstruction",4,"2062361839",-17
33,"test_display",1003.89499985613,"0.0-8.0-2.14","16",22,7415.83000007086,"1313777","227","mouse-reconstruction",4,"2062361839",-11
225,"test_display",1000.17499993555,"0.0-8.0-2.15","32",224,5814.80500008911,"1322596","230","mouse-reconstruction",4,"2062361839",-1
79,"test_display",1000.28000003658,"0.0-8.0-2.16","02",60,4132.14999996126,"1329737","233","mouse-reconstruction",4,"2062361839",-19
273,"test_display",999.64000005275,"0.0-8.0-2.17","08",293,2914.72500003874,"1335658","236","mouse-reconstruction",4,"2062361839",20
202,"test_display",1000.95000001602,"0.0-8.0-2.18","16",195,6115.12500001118,"1344782","239","mouse-reconstruction",4,"2062361839",-7
341,"test_display",1000.71500008926,"0.0-8.0-2.19","32",340,4212.77999994345,"1352002","242","mouse-reconstruction",4,"2062361839",-1
287,"test_display",1000.06500002928,"0.0-8.0-2.20","04",289,8524.5700001251,"1363535","245","mouse-reconstruction",4,"2062361839",2
142,"test_display",1000.53000007756,"0.0-8.0-2.21","04",120,2620.63500005752,"1369166","248","mouse-reconstruction",4,"2062361839",-22
280,"test_display",1000.28000003658,"0.0-8.0-2.22","32",273,3178.72500000522,"1375355","251","mouse-reconstruction",4,"2062361839",-7
129,"test_display",1002.19499995001,"0.0-8.0-2.23","08",136,3790.55000003427,"1382157","254","mouse-reconstruction",4,"2062361839",7
104,"test_display",999.589999904856,"0.0-8.0-2.24","04",102,6433.98500001058,"1391599","257","mouse-reconstruction",4,"2062361839",-2
42,"test_display",999.605000019073,"0.0-8.0-2.25","04",40,2915.01999995671,"1397522","260","mouse-reconstruction",4,"2062361839",-2
32,"test_display",999.799999874085,"0.0-8.0-2.26","32",61,5200.83000021987,"1405729","263","mouse-reconstruction",4,"2062361839",29
2,"test_display",999.890000093728,"0.0-8.0-2.27","04",359,6064.86500008032,"1414802","266","mouse-reconstruction",4,"2062361839",-3
21,"test_display",999.095000093803,"0.0-8.0-2.28","32",18,3592.32499985956,"1421401","269","mouse-reconstruction",4,"2062361839",-3
92,"test_display",1001.50499981828,"0.0-8.0-2.29","08",99,3887.40500016138,"1428300","272","mouse-reconstruction",4,"2062361839",7
107,"test_display",999.944999814034,"0.0-8.0-2.30","02",94,2559.84500003979,"1433865","275","mouse-reconstruction",4,"2062361839",-13
89,"test_display",1000.03500003368,"0.0-8.0-2.31","16",89,5326.57999987714,"1442199","278","mouse-reconstruction",4,"2062361839",0
238,"test_display",999.91500005126,"0.0-8.0-2.32","16",233,2634.75500000641,"1447840","281","mouse-reconstruction",4,"2062361839",-5
163,"test_display",999.759999802336,"0.0-8.0-2.33","08",161,6428.45500004478,"1457274","284","mouse-reconstruction",4,"2062361839",-2
238,"test_display",1000.19999989308,"0.0-8.0-2.34","02",1,3785.29500006698,"1464067","287","mouse-reconstruction",4,"2062361839",123
125,"test_display",1000.400000019,"0.0-8.0-2.35","04",132,2922.14499996044,"1469996","290","mouse-reconstruction",4,"2062361839",7
70,"test_display",999.605000019073,"0.0-8.0-2.36","32",67,2721.6349998489,"1475725","293","mouse-reconstruction",4,"2062361839",-3
323,"test_display",999.914999818429,"0.0-8.0-2.37","16",273,3479.95500010438,"1482212","296","mouse-reconstruction",4,"2062361839",-50
49,"test_display",1001.91499991342,"0.0-8.0-2.38","32",52,2953.87500012293,"1488176","299","mouse-reconstruction",4,"2062361839",3
124,"test_display",1000.10999990627,"0.0-8.0-2.39","32",125,4445.13999996707,"1495626","302","mouse-reconstruction",4,"2062361839",1
58,"test_display",999.569999985397,"0.0-8.0-2.40","16",48,2144.48000001721,"1500778","305","mouse-reconstruction",4,"2062361839",-10
27,"test_display",1000.98000001162,"0.0-8.0-2.41","04",6,2139.97500017285,"1505924","308","mouse-reconstruction",4,"2062361839",-21
88,"test_display",1004.82499995269,"0.0-8.0-2.42","08",90,5685.78499997966,"1514622","311","mouse-reconstruction",4,"2062361839",2
11,"test_display",999.865000136197,"0.0-8.0-2.43","08",18,5078.32499989308,"1522709","314","mouse-reconstruction",4,"2062361839",7
277,"test_display",1000.16999989748,"0.0-8.0-2.44","02",244,2076.2050000485,"1527792","317","mouse-reconstruction",4,"2062361839",-33
69,"test_display",1000.23499992676,"0.0-8.0-2.45","08",68,3399.63500015438,"1534199","320","mouse-reconstruction",4,"2062361839",-1
202,"test_display",999.864999903366,"0.0-8.0-2.46","04",189,8054.2200000491,"1545258","323","mouse-reconstruction",4,"2062361839",-13
52,"test_display",1000.31000003219,"0.0-8.0-2.47","32",53,6384.89000010304,"1554652","326","mouse-reconstruction",4,"2062361839",1
81,"test_display",999.36500005424,"0.0-8.0-2.48","04",81,1643.48999992944,"1559298","329","mouse-reconstruction",4,"2062361839",0
107,"test_display",1002.9349999968,"0.0-8.0-2.49","04",111,8142.98500004224,"1570452","332","mouse-reconstruction",4,"2062361839",4
300,"test_display",1000.86500006728,"0.0-8.0-2.50","08",285,4924.06999995001,"1578383","335","mouse-reconstruction",4,"2062361839",-15
178,"test_display",1004.96999989264,"0.0-8.0-2.51","32",180,3589.72500008531,"1584989","338","mouse-reconstruction",4,"2062361839",2
36,"test_display",999.825000064448,"0.0-8.0-2.52","08",40,2535.22499999963,"1590531","341","mouse-reconstruction",4,"2062361839",4
194,"test_display",1000.20999996923,"0.0-8.0-2.53","32",195,4469.81999999844,"1598004","344","mouse-reconstruction",4,"2062361839",1
107,"test_display",999.800000106916,"0.0-10.0-2.0","32",107,3267.8949998226,"1605619","348","mouse-reconstruction",4,"2062361839",0
181,"test_display",1003.83499986492,"0.0-10.0-2.1","08",184,5953.07500008494,"1614582","351","mouse-reconstruction",4,"2062361839",3
67,"test_display",1000.68500009365,"0.0-10.0-2.2","16",71,4629.13000001572,"1622221","354","mouse-reconstruction",4,"2062361839",4
270,"test_display",1000.72499993257,"0.0-10.0-2.3","32",271,3388.93000013195,"1628619","357","mouse-reconstruction",4,"2062361839",1
43,"test_display",999.460000079125,"0.0-10.0-2.4","04",57,10346.1849999148,"1641967","360","mouse-reconstruction",4,"2062361839",14
110,"test_display",1000.59999991208,"0.0-10.0-2.5","04",123,6957.08500011824,"1651932","363","mouse-reconstruction",4,"2062361839",13
22,"test_display",1000.6950001698,"0.0-10.0-2.6","08",16,3204.69999988563,"1658144","366","mouse-reconstruction",4,"2062361839",-6
330,"test_display",1003.7149998825,"0.0-10.0-2.7","16",328,6994.96000004001,"1668149","369","mouse-reconstruction",4,"2062361839",-2
248,"test_display",1000.82499999553,"0.0-10.0-2.8","08",254,4719.150000019,"1675878","372","mouse-reconstruction",4,"2062361839",6
287,"test_display",1002.54000001587,"0.0-10.0-2.9","08",275,4346.17999987677,"1683235","375","mouse-reconstruction",4,"2062361839",-12
243,"test_display",1002.36999988556,"0.0-10.0-2.10","32",241,8235.02500005998,"1694481","378","mouse-reconstruction",4,"2062361839",-2
121,"test_display",1000.77000004239,"0.0-10.0-2.11","08",112,6310.64499984495,"1703801","381","mouse-reconstruction",4,"2062361839",-9
323,"test_display",999.250000109896,"0.0-10.0-2.12","02",338,4457.97499991022,"1711265","384","mouse-reconstruction",4,"2062361839",15
158,"test_display",999.615000095218,"0.0-10.0-2.13","32",159,2661.6699998267,"1716933","387","mouse-reconstruction",4,"2062361839",1
316,"test_display",1003.59999993816,"0.0-10.0-2.14","04",331,10501.394999912,"1730444","390","mouse-reconstruction",4,"2062361839",15
276,"test_display",1000.06500002928,"0.0-10.0-2.15","32",279,7228.93500002101,"1740677","393","mouse-reconstruction",4,"2062361839",3
28,"test_display",1000.59500010684,"0.0-10.0-2.16","04",30,1613.29500004649,"1745298","396","mouse-reconstruction",4,"2062361839",2
280,"test_display",999.615000095218,"0.0-10.0-2.17","16",279,5990.72499992326,"1754296","399","mouse-reconstruction",4,"2062361839",-1
134,"test_display",1000.87499991059,"0.0-10.0-2.18","16",142,5257.37000000663,"1762561","402","mouse-reconstruction",4,"2062361839",8
249,"test_display",1000,"0.0-10.0-2.19","02",254,3633.51500011049,"1769201","405","mouse-reconstruction",4,"2062361839",5
109,"test_display",1003.09499981813,"0.0-10.0-2.20","02",141,5146.39999996871,"1777358","408","mouse-reconstruction",4,"2062361839",32
131,"test_display",1000.5349998828,"0.0-10.0-2.21","32",127,2453.23000010103,"1782819","411","mouse-reconstruction",4,"2062361839",-4
331,"test_display",1000.72999997064,"0.0-10.0-2.22","16",329,4180.70499994792,"1790008","414","mouse-reconstruction",4,"2062361839",-2
141,"test_display",1003.89499985613,"0.0-10.0-2.23","32",146,5736.85500002466,"1798755","417","mouse-reconstruction",4,"2062361839",5
340,"test_display",999.654999934137,"0.0-10.0-2.24","16",340,5376.16000021808,"1807139","420","mouse-reconstruction",4,"2062361839",0
44,"test_display",1000.9400001727,"0.0-10.0-2.25","02",53,1884.59999999031,"1812028","423","mouse-reconstruction",4,"2062361839",9
303,"test_display",1000.22500008345,"0.0-10.0-2.26","16",302,7325.75000007637,"1822363","426","mouse-reconstruction",4,"2062361839",-1
203,"test_display",999.749999959022,"0.0-10.0-2.27","32",201,7630.57999988087,"1833002","429","mouse-reconstruction",4,"2062361839",-2
107,"test_display",1000.22000004537,"0.0-10.0-2.28","08",107,5479.14499999024,"1841487","432","mouse-reconstruction",4,"2062361839",0
16,"test_display",1000.16000005417,"0.0-10.0-2.29","04",9,2738.14500006847,"1847233","435","mouse-reconstruction",4,"2062361839",-7
124,"test_display",999.950000084937,"0.0-10.0-2.30","04",123,1507.43500003591,"1851749","438","mouse-reconstruction",4,"2062361839",-1
34,"test_display",999.905000207946,"0.0-10.0-2.31","04",37,2499.599999981,"1857253","441","mouse-reconstruction",4,"2062361839",3
157,"test_display",999.479999998584,"0.0-10.0-2.32","16",157,7374.53999998979,"1867635","444","mouse-reconstruction",4,"2062361839",0
173,"test_display",999.64000005275,"0.0-10.0-2.33","16",171,4163.34500000812,"1874802","447","mouse-reconstruction",4,"2062361839",-2
223,"test_display",999.865000136197,"0.0-10.0-2.34","04",221,2766.21999987401,"1880576","450","mouse-reconstruction",4,"2062361839",-2
327,"test_display",1000.04499987699,"0.0-10.0-2.35","02",341,2400.5650000181,"1885981","453","mouse-reconstruction",4,"2062361839",14
205,"test_display",1000.74500008486,"0.0-10.0-2.36","32",204,7191.79499987513,"1896178","456","mouse-reconstruction",4,"2062361839",-1
300,"test_display",999.769999878481,"0.0-10.0-2.37","32",300,7064.53500012867,"1906248","459","mouse-reconstruction",4,"2062361839",0
168,"test_display",1000.11999998242,"0.0-10.0-2.38","02",185,3711.34999999776,"1912968","462","mouse-reconstruction",4,"2062361839",17
140,"test_display",1001.59999984317,"0.0-10.0-2.39","04",125,1752.71000014618,"1917729","465","mouse-reconstruction",4,"2062361839",-15
218,"test_display",1000.09500002488,"0.0-10.0-2.40","08",206,3987.14499990456,"1924727","468","mouse-reconstruction",4,"2062361839",-12
60,"test_display",1001.6300000716,"0.0-10.0-2.41","08",52,5065.90499985032,"1932801","471","mouse-reconstruction",4,"2062361839",-8
169,"test_display",999.990000156686,"0.0-10.0-2.42","08",168,8389.52500000596,"1944198","474","mouse-reconstruction",4,"2062361839",-1
69,"test_display",1000.31500007026,"0.0-10.0-2.43","02",84,5076.4949999284,"1952286","477","mouse-reconstruction",4,"2062361839",15
116,"test_display",1000.0749998726,"0.0-10.0-2.44","02",121,3533.83500012569,"1958824","480","mouse-reconstruction",4,"2062361839",5
289,"test_display",999.580000061542,"0.0-10.0-2.45","02",298,1723.6349999439,"1963552","483","mouse-reconstruction",4,"2062361839",9
74,"test_display",1000.31000003219,"0.0-10.0-2.46","08",72,3096.17000003345,"1969656","486","mouse-reconstruction",4,"2062361839",-2
214,"test_display",1002.50499998219,"0.0-10.0-2.47","08",225,5172.83000005409,"1977837","489","mouse-reconstruction",4,"2062361839",11
73,"test_display",999.735000077635,"0.0-10.0-2.48","04",78,2411.36499983259,"1983252","492","mouse-reconstruction",4,"2062361839",5
172,"test_display",1003.61000001431,"0.0-10.0-2.49","04",158,2451.0400001891,"1988717","495","mouse-reconstruction",4,"2062361839",-14
86,"test_display",1000.5850000307,"0.0-10.0-2.50","16",88,3266.75499998964,"1994987","498","mouse-reconstruction",4,"2062361839",2
296,"test_display",999.575000023469,"0.0-10.0-2.51","04",321,3394.35999980196,"2001389","501","mouse-reconstruction",4,"2062361839",25
354,"test_display",1000.69999997504,"0.0-10.0-2.52","02",358,3657.02500008047,"2008056","504","mouse-reconstruction",4,"2062361839",4
266,"test_display",1000.23999996483,"0.0-10.0-2.53","04",264,6084.74500011653,"2017151","507","mouse-reconstruction",4,"2062361839",-2
140,"test_display",999.25999995321,"0.0-12.0-2.0","02",142,4823.67500010878,"2070674","511","mouse-reconstruction",4,"2062361839",2
178,"test_display",1001.25500001013,"0.0-12.0-2.1","16",177,4185.01499993727,"2077868","514","mouse-reconstruction",4,"2062361839",-1
200,"test_display",1003.9800000377,"0.0-12.0-2.2","32",207,1964.39999993891,"2082843","517","mouse-reconstruction",4,"2062361839",7
327,"test_display",1000.00500003807,"0.0-12.0-2.3","32",306,5676.80999985896,"2091526","520","mouse-reconstruction",4,"2062361839",-21
347,"test_display",1000.00500003807,"0.0-12.0-2.4","08",274,12092.9199999664,"2106628","523","mouse-reconstruction",4,"2062361839",-73
139,"test_display",999.324999982491,"0.0-12.0-2.5","02",147,1219.950000057,"2110853","526","mouse-reconstruction",4,"2062361839",8
338,"test_display",1001.7349999398,"0.0-12.0-2.6","04",281,1727.77000023052,"2115589","529","mouse-reconstruction",4,"2062361839",-57
244,"test_display",1000.46500004828,"0.0-12.0-2.7","04",248,9357.42499982007,"2127955","532","mouse-reconstruction",4,"2062361839",4
136,"test_display",1000.07000006735,"0.0-12.0-2.8","16",133,1783.07499992661,"2132743","535","mouse-reconstruction",4,"2062361839",-3
287,"test_display",1000.13000005856,"0.0-12.0-2.9","16",288,6085.4400000535,"2141836","538","mouse-reconstruction",4,"2062361839",1
77,"test_display",1000.14499993995,"0.0-12.0-2.10","32",75,6982.26499999873,"2151825","541","mouse-reconstruction",4,"2062361839",-2
7,"test_display",999.719999963418,"0.0-12.0-2.11","08",11,3476.50500014424,"2158309","544","mouse-reconstruction",4,"2062361839",4
30,"test_display",1000.82499999553,"0.0-12.0-2.12","16",30,3386.62000000477,"2164700","547","mouse-reconstruction",4,"2062361839",0
122,"test_display",1000.35500014201,"0.0-12.0-2.13","32",125,9687.24999995902,"2177396","550","mouse-reconstruction",4,"2062361839",3
267,"test_display",1000.5850000307,"0.0-12.0-2.14","08",264,4251.99000001885,"2184657","553","mouse-reconstruction",4,"2062361839",-3
280,"test_display",999.420000007376,"0.0-12.0-2.15","08",280,1191.31499994546,"2188856","556","mouse-reconstruction",4,"2062361839",0
122,"test_display",1000.44999993406,"0.0-12.0-2.16","02",122,2962.5249998644,"2194825","559","mouse-reconstruction",4,"2062361839",0
351,"test_display",1000.23999996483,"0.0-12.0-2.17","08",344,9931.12000008114,"2207763","562","mouse-reconstruction",4,"2062361839",-7
45,"test_display",999.594999942929,"0.0-12.0-2.18","16",44,4736.41000012867,"2215507","565","mouse-reconstruction",4,"2062361839",-1
293,"test_display",1000.03999983892,"0.0-12.0-2.19","08",295,6924.98000012711,"2225437","568","mouse-reconstruction",4,"2062361839",2
185,"test_display",1000.14000013471,"0.0-12.0-2.20","32",183,6490.31000002287,"2234937","571","mouse-reconstruction",4,"2062361839",-2
241,"test_display",999.855000060052,"0.0-12.0-2.21","08",245,1887.78500002809,"2239832","574","mouse-reconstruction",4,"2062361839",4
59,"test_display",1000.50000008196,"0.0-12.0-2.22","08",55,1896.51999995112,"2244736","577","mouse-reconstruction",4,"2062361839",-4
346,"test_display",1001.90499983728,"0.0-12.0-2.23","04",22,6895.63000015914,"2254643","580","mouse-reconstruction",4,"2062361839",36
227,"test_display",1001.27999996766,"0.0-12.0-2.24","08",231,10652.3299999535,"2268300","583","mouse-reconstruction",4,"2062361839",4
359,"test_display",1000.15000021085,"0.0-12.0-2.25","02",303,2345.87499988265,"2273653","586","mouse-reconstruction",4,"2062361839",-56
114,"test_display",1003.77000006847,"0.0-12.0-2.26","16",94,4233.10500010848,"2280897","589","mouse-reconstruction",4,"2062361839",-20
14,"test_display",1003.65999992937,"0.0-12.0-2.27","16",10,11476.3500001281,"2295385","592","mouse-reconstruction",4,"2062361839",-4
72,"test_display",999.464999884367,"0.0-12.0-2.28","32",77,5098.14999997616,"2303490","595","mouse-reconstruction",4,"2062361839",5
169,"test_display",1000.08999998681,"0.0-12.0-2.29","02",96,3165.15000001527,"2309664","598","mouse-reconstruction",4,"2062361839",-73
266,"test_display",1003.6900001578,"0.0-12.0-2.30","32",291,5398.89999991283,"2318072","601","mouse-reconstruction",4,"2062361839",25
154,"test_display",999.880000017583,"0.0-12.0-2.31","16",153,5777.35999994911,"2326857","604","mouse-reconstruction",4,"2062361839",-1
243,"test_display",999.924999894574,"0.0-12.0-2.32","08",253,3566.13000016659,"2333431","607","mouse-reconstruction",4,"2062361839",10
279,"test_display",1003.89499985613,"0.0-12.0-2.33","08",280,5432.45500000194,"2341878","610","mouse-reconstruction",4,"2062361839",1
296,"test_display",1000.44499989599,"0.0-12.0-2.34","16",291,2141.13999996334,"2347024","613","mouse-reconstruction",4,"2062361839",-5
303,"test_display",999.390000011772,"0.0-12.0-2.35","04",299,3230.13499984518,"2353261","616","mouse-reconstruction",4,"2062361839",-4
48,"test_display",1000.1349998638,"0.0-12.0-2.36","08",48,7926.82500020601,"2364198","619","mouse-reconstruction",4,"2062361839",0
227,"test_display",1000.30499999411,"0.0-12.0-2.37","32",229,6851.62500012666,"2374061","622","mouse-reconstruction",4,"2062361839",2
38,"test_display",1000.37500006147,"0.0-12.0-2.38","02",42,3566.69000000693,"2380636","625","mouse-reconstruction",4,"2062361839",4
254,"test_display",1000.2150000073,"0.0-12.0-2.39","02",254,3652.49000000767,"2387296","628","mouse-reconstruction",4,"2062361839",0
85,"test_display",1003.83000005968,"0.0-12.0-2.40","16",84,1628.77499987371,"2391934","631","mouse-reconstruction",4,"2062361839",-1
2,"test_display",999.805000144988,"0.0-12.0-2.41","02",330,5003.96499992348,"2399943","634","mouse-reconstruction",4,"2062361839",-32
183,"test_display",1003.71000007726,"0.0-12.0-2.42","02",40,3412.32499992475,"2406367","637","mouse-reconstruction",4,"2062361839",-143
101,"test_display",1003.73500003479,"0.0-12.0-2.43","08",101,3658.33000000566,"2413040","640","mouse-reconstruction",4,"2062361839",0
157,"test_display",1000.69999997504,"0.0-12.0-2.44","08",158,3848.14000013284,"2419897","643","mouse-reconstruction",4,"2062361839",1
324,"test_display",999.890000093728,"0.0-12.0-2.45","04",321,3218.48999988288,"2426125","646","mouse-reconstruction",4,"2062361839",-3
198,"test_display",1000.31500007026,"0.0-12.0-2.46","04",222,3356.31499998271,"2432489","649","mouse-reconstruction",4,"2062361839",24
1,"test_display",1000.29499991797,"0.0-12.0-2.47","32",343,2940.45000011101,"2438435","652","mouse-reconstruction",4,"2062361839",-18
59,"test_display",1000.800000038,"0.0-12.0-2.48","16",51,7548.1799999252,"2448991","655","mouse-reconstruction",4,"2062361839",-8
90,"test_display",999.25999995321,"0.0-12.0-2.49","32",89,1869.30999998003,"2453868","658","mouse-reconstruction",4,"2062361839",-1
74,"test_display",1000.33499998972,"0.0-12.0-2.50","04",76,2123.5849999357,"2458999","661","mouse-reconstruction",4,"2062361839",2
152,"test_display",999.825000064448,"0.0-12.0-2.51","16",163,2628.53999994695,"2464636","664","mouse-reconstruction",4,"2062361839",11
158,"test_display",1002.86499992944,"0.0-12.0-2.52","08",159,5046.40999995172,"2472693","667","mouse-reconstruction",4,"2062361839",1
215,"test_display",1000.51499996334,"0.0-12.0-2.53","08",185,5924.2249999661,"2481626","670","mouse-reconstruction",4,"2062361839",-30
221,"test_display",999.889999860898,"0.0-14.0-2.0","04",202,5601.55500005931,"2508799","674","mouse-reconstruction",4,"2062361839",-19
136,"test_display",999.925000127405,"0.0-14.0-2.1","04",140,1894.93499998935,"2513699","677","mouse-reconstruction",4,"2062361839",4
93,"test_display",1004.2750001885,"0.0-14.0-2.2","04",107,5812.73999996483,"2522526","680","mouse-reconstruction",4,"2062361839",14
178,"test_display",1000.37500006147,"0.0-14.0-2.3","02",55,4413.18999999203,"2529947","683","mouse-reconstruction",4,"2062361839",-123
25,"test_display",1002.67999991775,"0.0-14.0-2.4","32",11,13039.2050000373,"2545996","686","mouse-reconstruction",4,"2062361839",-14
166,"test_display",1000.10999990627,"0.0-14.0-2.5","32",176,2831.75499993376,"2551837","689","mouse-reconstruction",4,"2062361839",10
213,"test_display",1000.46000001021,"0.0-14.0-2.6","16",213,4806.40000011772,"2559654","692","mouse-reconstruction",4,"2062361839",0
178,"test_display",999.404999893159,"0.0-14.0-2.7","04",203,5222.96499996446,"2567884","695","mouse-reconstruction",4,"2062361839",25
182,"test_display",999.920000089332,"0.0-14.0-2.8","16",182,4800.9899999015,"2575693","698","mouse-reconstruction",4,"2062361839",0
306,"test_display",999.91500005126,"0.0-14.0-2.9","08",297,4486.37000005692,"2583188","701","mouse-reconstruction",4,"2062361839",-9
278,"test_display",1002.77499994263,"0.0-14.0-2.10","04",341,6737.22000000998,"2592932","704","mouse-reconstruction",4,"2062361839",63
337,"test_display",999.864999903366,"0.0-14.0-2.11","04",342,1258.93000001088,"2597197","707","mouse-reconstruction",4,"2062361839",5
284,"test_display",1000.2950001508,"0.0-14.0-2.12","32",293,2243.0549999699,"2602449","710","mouse-reconstruction",4,"2062361839",9
199,"test_display",1000.77500008047,"0.0-14.0-2.13","02",201,1708.92499992624,"2607166","713","mouse-reconstruction",4,"2062361839",2
358,"test_display",999.850000021979,"0.0-14.0-2.14","32",350,5452.64000003226,"2615625","716","mouse-reconstruction",4,"2062361839",-8
307,"test_display",1000.31500007026,"0.0-14.0-2.15","02",301,3602.1649998147,"2622233","719","mouse-reconstruction",4,"2062361839",-6
70,"test_display",1001.96500006132,"0.0-14.0-2.16","04",67,3193.27000016347,"2628435","722","mouse-reconstruction",4,"2062361839",-3
336,"test_display",1003.50500014611,"0.0-14.0-2.17","08",319,3079.10500001162,"2634525","725","mouse-reconstruction",4,"2062361839",-17
161,"test_display",1002.45000002906,"0.0-14.0-2.18","04",68,3347.35499997623,"2640882","728","mouse-reconstruction",4,"2062361839",-93
302,"test_display",1003.64000000991,"0.0-14.0-2.19","32",304,3813.12999990769,"2647706","731","mouse-reconstruction",4,"2062361839",2
28,"test_display",1001.21999997646,"0.0-14.0-2.20","08",34,4961.23000001535,"2655676","734","mouse-reconstruction",4,"2062361839",6
45,"test_display",1000.49500004388,"0.0-14.0-2.21","04",49,2022.24000007845,"2660709","737","mouse-reconstruction",4,"2062361839",4
40,"test_display",1001.4450000599,"0.0-14.0-2.22","02",51,4186.59999989904,"2667904","740","mouse-reconstruction",4,"2062361839",11
99,"test_display",999.47000015527,"0.0-14.0-2.23","02",113,2261.7799998261,"2673171","743","mouse-reconstruction",4,"2062361839",14
109,"test_display",1000.08499994874,"0.0-14.0-2.24","16",111,1847.92499989271,"2678025","746","mouse-reconstruction",4,"2062361839",2
135,"test_display",1000.6150000263,"0.0-14.0-2.25","16",139,5225.83500016481,"2686263","749","mouse-reconstruction",4,"2062361839",4
87,"test_display",1000.13999990188,"0.0-14.0-2.26","02",86,7748.78500006162,"2697018","752","mouse-reconstruction",4,"2062361839",-1
174,"test_display",999.880000017583,"0.0-14.0-2.27","16",175,4448.3449999243,"2704473","755","mouse-reconstruction",4,"2062361839",1
218,"test_display",999.765000073239,"0.0-14.0-2.28","04",220,3334.95499985293,"2710815","758","mouse-reconstruction",4,"2062361839",2
262,"test_display",1004.01999987662,"0.0-14.0-2.29","02",263,3538.97999995388,"2717366","761","mouse-reconstruction",4,"2062361839",1
232,"test_display",999.535000184551,"0.0-14.0-2.30","32",242,5401.11999982037,"2725773","764","mouse-reconstruction",4,"2062361839",10
315,"test_display",1000.00499980524,"0.0-14.0-2.31","02",336,3035.00999999233,"2731816","767","mouse-reconstruction",4,"2062361839",21
117,"test_display",999.270000029355,"0.0-14.0-2.32","16",128,3033.71500014327,"2737859","770","mouse-reconstruction",4,"2062361839",11
184,"test_display",1000.12500002049,"0.0-14.0-2.33","32",178,6426.91500019282,"2747289","773","mouse-reconstruction",4,"2062361839",-6
259,"test_display",999.825000064448,"0.0-14.0-2.34","16",260,7652.9149999842,"2757951","776","mouse-reconstruction",4,"2062361839",1
152,"test_display",1000.10999990627,"0.0-14.0-2.35","04",178,4829.49499995448,"2765786","779","mouse-reconstruction",4,"2062361839",26
206,"test_display",999.964999966323,"0.0-14.0-2.36","02",193,1624.36000001617,"2770417","782","mouse-reconstruction",4,"2062361839",-13
264,"test_display",999.964999966323,"0.0-14.0-2.37","16",267,6430.02999993041,"2779856","785","mouse-reconstruction",4,"2062361839",3
33,"test_display",999.684999929741,"0.0-14.0-2.38","02",37,3380.33499987796,"2786244","788","mouse-reconstruction",4,"2062361839",4
19,"test_display",1002.43499991484,"0.0-14.0-2.39","02",20,4857.98000008799,"2794110","791","mouse-reconstruction",4,"2062361839",1
95,"test_display",999.765000073239,"0.0-14.0-2.40","02",91,2386.42000011168,"2799501","794","mouse-reconstruction",4,"2062361839",-4
84,"test_display",1003.83499986492,"0.0-14.0-2.41","04",161,17218.7950001098,"2819732","797","mouse-reconstruction",4,"2062361839",77
269,"test_display",999.560000142083,"0.0-14.0-2.42","16",268,5577.87499995902,"2828314","800","mouse-reconstruction",4,"2062361839",-1
344,"test_display",1000.27499999851,"0.0-14.0-2.43","16",337,3081.45499997772,"2834403","803","mouse-reconstruction",4,"2062361839",-7
114,"test_display",1003.74500011094,"0.0-14.0-2.44","08",120,2675.0250000041,"2840089","806","mouse-reconstruction",4,"2062361839",6
262,"test_display",1000.07000006735,"0.0-14.0-2.45","16",269,4301.35499988683,"2847397","809","mouse-reconstruction",4,"2062361839",7
21,"test_display",1003.77999991179,"0.0-14.0-2.46","02",245,2672.59500012733,"2853078","812","mouse-reconstruction",4,"2062361839",-136
71,"test_display",1002.25999997929,"0.0-14.0-2.47","16",74,2554.75999996997,"2858642","815","mouse-reconstruction",4,"2062361839",3
344,"test_display",1003.59500013292,"0.0-14.0-2.48","32",343,4117.91999987327,"2865771","818","mouse-reconstruction",4,"2062361839",-1
193,"test_display",1003.32499993965,"0.0-14.0-2.49","02",79,2406.65500005707,"2871189","821","mouse-reconstruction",4,"2062361839",-114
254,"test_display",1004.63000009768,"0.0-14.0-2.50","32",249,3417.14999987744,"2877618","824","mouse-reconstruction",4,"2062361839",-5
214,"test_display",1002.65499996021,"0.0-14.0-2.51","02",223,10260.9200000297,"2890888","827","mouse-reconstruction",4,"2062361839",9
287,"test_display",1000.69499993697,"0.0-14.0-2.52","02",259,4962.86999993026,"2898858","830","mouse-reconstruction",4,"2062361839",-28
232,"test_display",1000.39999978617,"0.0-14.0-2.53","16",229,7861.16500012577,"2909730","833","mouse-reconstruction",4,"2062361839",-3
24,"test_display",1000,"0.0-6.0-2.0","08",11,15787,"178127","22","mouse-reconstruction",3,"2833466166",-13
104,"test_display",1001,"0.0-6.0-2.1","02",143,5591,"186735","25","mouse-reconstruction",3,"2833466166",39
29,"test_display",1001,"0.0-6.0-2.2","02",46,14832,"204578","28","mouse-reconstruction",3,"2833466166",17
227,"test_display",1000,"0.0-6.0-2.3","04",296,9519,"217124","31","mouse-reconstruction",3,"2833466166",69
159,"test_display",1001,"0.0-6.0-2.4","02",151,2458,"222594","34","mouse-reconstruction",3,"2833466166",-8
219,"test_display",1002,"0.0-6.0-2.5","32",218,3193,"228797","37","mouse-reconstruction",3,"2833466166",-1
47,"test_display",1000,"0.0-6.0-2.6","08",48,11110,"242911","40","mouse-reconstruction",3,"2833466166",1
220,"test_display",1001,"0.0-6.0-2.7","32",222,5279,"251205","43","mouse-reconstruction",3,"2833466166",2
190,"test_display",1001,"0.0-6.0-2.8","16",179,6539,"260753","46","mouse-reconstruction",3,"2833466166",-11
228,"test_display",1000,"0.0-6.0-2.9","08",231,7132,"270888","49","mouse-reconstruction",3,"2833466166",3
298,"test_display",1001,"0.0-6.0-2.10","02",276,6775,"280696","52","mouse-reconstruction",3,"2833466166",-22
46,"test_display",1000,"0.0-6.0-2.11","04",31,5606,"289312","55","mouse-reconstruction",3,"2833466166",-15
13,"test_display",1004,"0.0-6.0-2.12","32",13,10131,"302452","58","mouse-reconstruction",3,"2833466166",0
232,"test_display",1000,"0.0-6.0-2.13","02",285,10559,"316029","61","mouse-reconstruction",3,"2833466166",53
45,"test_display",1000,"0.0-6.0-2.14","16",33,7663,"326700","64","mouse-reconstruction",3,"2833466166",-12
35,"test_display",1037,"0.0-6.0-2.15","32",31,8178,"337928","67","mouse-reconstruction",3,"2833466166",-4
245,"test_display",1000,"0.0-6.0-2.16","04",232,8320,"349256","70","mouse-reconstruction",3,"2833466166",-13
101,"test_display",1001,"0.0-6.0-2.17","04",108,4949,"357252","73","mouse-reconstruction",3,"2833466166",7
176,"test_display",1000,"0.0-6.0-2.18","32",177,8286,"368546","76","mouse-reconstruction",3,"2833466166",1
175,"test_display",1001,"0.0-6.0-2.19","16",179,7307,"378870","79","mouse-reconstruction",3,"2833466166",4
2,"test_display",1000,"0.0-6.0-2.20","04",25,19175,"401060","82","mouse-reconstruction",3,"2833466166",23
100,"test_display",1002,"0.0-6.0-2.21","16",101,4653,"408725","85","mouse-reconstruction",3,"2833466166",1
345,"test_display",1001,"0.0-6.0-2.22","02",344,9762,"421497","88","mouse-reconstruction",3,"2833466166",-1
339,"test_display",1002,"0.0-6.0-2.23","02",345,2474,"426981","91","mouse-reconstruction",3,"2833466166",6
306,"test_display",1000,"0.0-6.0-2.24","08",311,7610,"437603","94","mouse-reconstruction",3,"2833466166",5
243,"test_display",1000,"0.0-6.0-2.25","32",245,5950,"446573","97","mouse-reconstruction",3,"2833466166",2
179,"test_display",1000,"0.0-6.0-2.26","08",179,4616,"454199","100","mouse-reconstruction",3,"2833466166",0
207,"test_display",1001,"0.0-6.0-2.27","02",197,3630,"460841","103","mouse-reconstruction",3,"2833466166",-10
169,"test_display",1001,"0.0-6.0-2.28","32",170,8148,"472001","106","mouse-reconstruction",3,"2833466166",1
208,"test_display",1003,"0.0-6.0-2.29","02",150,8049,"483060","109","mouse-reconstruction",3,"2833466166",-58
12,"test_display",1001,"0.0-6.0-2.30","04",350,3814,"489883","112","mouse-reconstruction",3,"2833466166",-22
168,"test_display",1001,"0.0-6.0-2.31","32",170,6785,"499676","115","mouse-reconstruction",3,"2833466166",2
317,"test_display",1001,"0.0-6.0-2.32","16",308,4729,"507419","118","mouse-reconstruction",3,"2833466166",-9
13,"test_display",1002,"0.0-6.0-2.33","04",3,3204,"513645","121","mouse-reconstruction",3,"2833466166",-10
156,"test_display",1000,"0.0-6.0-2.34","02",77,14981,"531635","124","mouse-reconstruction",3,"2833466166",-79
47,"test_display",1000,"0.0-6.0-2.35","02",55,2352,"536995","127","mouse-reconstruction",3,"2833466166",8
228,"test_display",1000,"0.0-6.0-2.36","02",213,7395,"547398","130","mouse-reconstruction",3,"2833466166",-15
199,"test_display",1001,"0.0-6.0-2.37","02",197,2738,"553146","133","mouse-reconstruction",3,"2833466166",-2
305,"test_display",1000,"0.0-6.0-2.38","16",306,12608,"568760","136","mouse-reconstruction",3,"2833466166",1
346,"test_display",1001,"0.0-6.0-2.39","32",343,10650,"582430","139","mouse-reconstruction",3,"2833466166",-3
194,"test_display",1001,"0.0-6.0-2.40","04",184,3314,"588753","142","mouse-reconstruction",3,"2833466166",-10
147,"test_display",1001,"0.0-6.0-2.41","04",143,1142,"592904","145","mouse-reconstruction",3,"2833466166",-4
178,"test_display",1009,"0.0-6.0-2.42","04",176,5597,"601526","148","mouse-reconstruction",3,"2833466166",-2
293,"test_display",1000,"0.0-6.0-2.43","16",297,5949,"610483","151","mouse-reconstruction",3,"2833466166",4
144,"test_display",1001,"0.0-6.0-2.44","08",154,11716,"625207","154","mouse-reconstruction",3,"2833466166",10
2,"test_display",1001,"0.0-6.0-2.45","16",9,9116,"637332","157","mouse-reconstruction",3,"2833466166",7
200,"test_display",1000,"0.0-6.0-2.46","32",197,7994,"648346","160","mouse-reconstruction",3,"2833466166",-3
265,"test_display",1000,"0.0-6.0-2.47","16",266,4692,"656049","163","mouse-reconstruction",3,"2833466166",1
103,"test_display",1001,"0.0-6.0-2.48","16",93,5181,"664238","166","mouse-reconstruction",3,"2833466166",-10
284,"test_display",1000,"0.0-6.0-2.49","08",288,2912,"670162","169","mouse-reconstruction",3,"2833466166",4
1,"test_display",1000,"0.0-6.0-2.50","16",2,14433,"687603","172","mouse-reconstruction",3,"2833466166",1
200,"test_display",1001,"0.0-6.0-2.51","16",201,2486,"693097","175","mouse-reconstruction",3,"2833466166",1
306,"test_display",1000,"0.0-6.0-2.52","02",301,3709,"699818","178","mouse-reconstruction",3,"2833466166",-5
342,"test_display",1001,"0.0-6.0-2.53","32",341,3799,"706640","181","mouse-reconstruction",3,"2833466166",-1
26,"test_display",1001,"0.0-8.0-2.0","04",28,11771,"913338","185","mouse-reconstruction",3,"2833466166",2
235,"test_display",999,"0.0-8.0-2.1","08",234,6264,"922612","188","mouse-reconstruction",3,"2833466166",-1
191,"test_display",1000,"0.0-8.0-2.2","04",190,6976,"932596","191","mouse-reconstruction",3,"2833466166",-1
57,"test_display",1001,"0.0-8.0-2.3","02",51,4794,"940398","194","mouse-reconstruction",3,"2833466166",-6
238,"test_display",1001,"0.0-8.0-2.4","02",233,8175,"951582","197","mouse-reconstruction",3,"2833466166",-5
197,"test_display",1000,"0.0-8.0-2.5","08",184,9235,"963823","200","mouse-reconstruction",3,"2833466166",-13
276,"test_display",1001,"0.0-8.0-2.6","02",273,6305,"973149","203","mouse-reconstruction",3,"2833466166",-3
119,"test_display",1002,"0.0-8.0-2.7","08",124,5419,"981578","206","mouse-reconstruction",3,"2833466166",5
149,"test_display",999,"0.0-8.0-2.8","32",158,10724,"995310","209","mouse-reconstruction",3,"2833466166",9
218,"test_display",1000,"0.0-8.0-2.9","04",313,13273,"1011595","212","mouse-reconstruction",3,"2833466166",95
259,"test_display",1001,"0.0-8.0-2.10","08",251,7071,"1021676","215","mouse-reconstruction",3,"2833466166",-8
247,"test_display",1002,"0.0-8.0-2.11","04",254,12882,"1037580","218","mouse-reconstruction",3,"2833466166",7
155,"test_display",1000,"0.0-8.0-2.12","16",161,4654,"1045250","221","mouse-reconstruction",3,"2833466166",6
100,"test_display",1000,"0.0-8.0-2.13","04",116,6658,"1054917","224","mouse-reconstruction",3,"2833466166",16
12,"test_display",999,"0.0-8.0-2.14","08",19,10974,"1068898","227","mouse-reconstruction",3,"2833466166",7
209,"test_display",1001,"0.0-8.0-2.15","04",198,6254,"1078161","230","mouse-reconstruction",3,"2833466166",-11
44,"test_display",1001,"0.0-8.0-2.16","02",192,16935,"1098106","233","mouse-reconstruction",3,"2833466166",148
86,"test_display",1002,"0.0-8.0-2.17","32",26,7124,"1108254","236","mouse-reconstruction",3,"2833466166",-60
54,"test_display",1001,"0.0-8.0-2.18","32",46,3209,"1114472","239","mouse-reconstruction",3,"2833466166",-8
144,"test_display",1001,"0.0-8.0-2.19","02",143,6802,"1124282","242","mouse-reconstruction",3,"2833466166",-1
28,"test_display",1002,"0.0-8.0-2.20","16",29,7757,"1135051","245","mouse-reconstruction",3,"2833466166",1
354,"test_display",1001,"0.0-8.0-2.21","02",39,1988,"1140048","248","mouse-reconstruction",3,"2833466166",45
337,"test_display",1000,"0.0-8.0-2.22","32",327,12434,"1155491","251","mouse-reconstruction",3,"2833466166",-10
0,"test_display",1001,"0.0-8.0-2.23","02",305,4150,"1162667","254","mouse-reconstruction",3,"2833466166",-55
96,"test_display",1001,"0.0-8.0-2.24","02",85,8223,"1173901","257","mouse-reconstruction",3,"2833466166",-11
204,"test_display",1001,"0.0-8.0-2.25","08",208,14110,"1191022","260","mouse-reconstruction",3,"2833466166",4
301,"test_display",1000,"0.0-8.0-2.26","08",303,5112,"1199143","263","mouse-reconstruction",3,"2833466166",2
147,"test_display",1000,"0.0-8.0-2.27","32",158,6365,"1208515","266","mouse-reconstruction",3,"2833466166",11
47,"test_display",1000,"0.0-8.0-2.28","16",47,13505,"1225030","269","mouse-reconstruction",3,"2833466166",0
75,"test_display",1000,"0.0-8.0-2.29","32",74,3933,"1231985","272","mouse-reconstruction",3,"2833466166",-1
300,"test_display",1022,"0.0-8.0-2.30","02",297,10042,"1245059","275","mouse-reconstruction",3,"2833466166",-3
275,"test_display",1000,"0.0-8.0-2.31","16",278,5327,"1253396","278","mouse-reconstruction",3,"2833466166",3
117,"test_display",1001,"0.0-8.0-2.32","32",96,7829,"1264237","281","mouse-reconstruction",3,"2833466166",-21
93,"test_display",1001,"0.0-8.0-2.33","02",98,2401,"1269649","284","mouse-reconstruction",3,"2833466166",5
109,"test_display",1000,"0.0-8.0-2.34","32",110,10993,"1283650","287","mouse-reconstruction",3,"2833466166",1
266,"test_display",1001,"0.0-8.0-2.35","04",255,6574,"1293246","290","mouse-reconstruction",3,"2833466166",-11
177,"test_display",1000,"0.0-8.0-2.36","16",75,26673,"1322937","293","mouse-reconstruction",3,"2833466166",-102
76,"test_display",1000,"0.0-8.0-2.37","16",55,9497,"1335442","296","mouse-reconstruction",3,"2833466166",-21
146,"test_display",1001,"0.0-8.0-2.38","04",132,5157,"1343608","299","mouse-reconstruction",3,"2833466166",-14
288,"test_display",1001,"0.0-8.0-2.39","16",293,3866,"1350484","302","mouse-reconstruction",3,"2833466166",5
220,"test_display",1000,"0.0-8.0-2.40","04",245,7501,"1361010","305","mouse-reconstruction",3,"2833466166",25
275,"test_display",1001,"0.0-8.0-2.41","02",258,8418,"1372451","308","mouse-reconstruction",3,"2833466166",-17
205,"test_display",999,"0.0-8.0-2.42","02",229,6847,"1382305","311","mouse-reconstruction",3,"2833466166",24
43,"test_display",1000,"0.0-8.0-2.43","16",44,14687,"1400002","314","mouse-reconstruction",3,"2833466166",1
355,"test_display",1002,"0.0-8.0-2.44","16",356,3308,"1406321","317","mouse-reconstruction",3,"2833466166",1
287,"test_display",1000,"0.0-8.0-2.45","04",273,5564,"1414897","320","mouse-reconstruction",3,"2833466166",-14
315,"test_display",1000,"0.0-8.0-2.46","04",315,4542,"1422457","323","mouse-reconstruction",3,"2833466166",0
332,"test_display",1001,"0.0-8.0-2.47","08",330,6780,"1432264","326","mouse-reconstruction",3,"2833466166",-2
40,"test_display",1000,"0.0-8.0-2.48","08",35,7627,"1442905","329","mouse-reconstruction",3,"2833466166",-5
222,"test_display",1001,"0.0-8.0-2.49","16",217,2209,"1448129","332","mouse-reconstruction",3,"2833466166",-5
187,"test_display",1019,"0.0-8.0-2.50","32",196,5071,"1456229","335","mouse-reconstruction",3,"2833466166",9
172,"test_display",1002,"0.0-8.0-2.51","02",152,6810,"1466049","338","mouse-reconstruction",3,"2833466166",-20
290,"test_display",1000,"0.0-8.0-2.52","32",285,8885,"1477944","341","mouse-reconstruction",3,"2833466166",-5
118,"test_display",1000,"0.0-8.0-2.53","04",130,2292,"1483242","344","mouse-reconstruction",3,"2833466166",12
223,"test_display",1004,"0.0-10.0-2.0","08",223,5313,"1719024","348","mouse-reconstruction",3,"2833466166",0
44,"test_display",1001,"0.0-10.0-2.1","04",45,4508,"1726543","351","mouse-reconstruction",3,"2833466166",1
114,"test_display",1001,"0.0-10.0-2.2","02",110,8085,"1737642","354","mouse-reconstruction",3,"2833466166",-4
118,"test_display",1000,"0.0-10.0-2.3","08",117,8683,"1749333","357","mouse-reconstruction",3,"2833466166",-1
268,"test_display",1000,"0.0-10.0-2.4","08",274,6005,"1758357","360","mouse-reconstruction",3,"2833466166",6
242,"test_display",1001,"0.0-10.0-2.5","32",254,6220,"1767588","363","mouse-reconstruction",3,"2833466166",12
254,"test_display",1001,"0.0-10.0-2.6","08",257,3867,"1774465","366","mouse-reconstruction",3,"2833466166",3
208,"test_display",1000,"0.0-10.0-2.7","04",207,4614,"1782087","369","mouse-reconstruction",3,"2833466166",-1
345,"test_display",1001,"0.0-10.0-2.8","04",345,6228,"1791324","372","mouse-reconstruction",3,"2833466166",0
232,"test_display",1002,"0.0-10.0-2.9","32",231,8824,"1803158","375","mouse-reconstruction",3,"2833466166",-1
219,"test_display",1001,"0.0-10.0-2.10","16",218,3009,"1809177","378","mouse-reconstruction",3,"2833466166",-1
8,"test_display",1000,"0.0-10.0-2.11","32",77,18879,"1831080","381","mouse-reconstruction",3,"2833466166",69
313,"test_display",1001,"0.0-10.0-2.12","32",311,3863,"1837969","384","mouse-reconstruction",3,"2833466166",-2
66,"test_display",1001,"0.0-10.0-2.13","16",54,12031,"1853011","387","mouse-reconstruction",3,"2833466166",-12
249,"test_display",1001,"0.0-10.0-2.14","02",246,2681,"1858706","390","mouse-reconstruction",3,"2833466166",-3
99,"test_display",1000,"0.0-10.0-2.15","16",98,9346,"1871064","393","mouse-reconstruction",3,"2833466166",-1
93,"test_display",999,"0.0-10.0-2.16","04",91,13106,"1887183","396","mouse-reconstruction",3,"2833466166",-2
12,"test_display",1001,"0.0-10.0-2.17","16",14,9204,"1899411","399","mouse-reconstruction",3,"2833466166",2
302,"test_display",1001,"0.0-10.0-2.18","04",328,2336,"1904761","402","mouse-reconstruction",3,"2833466166",26
154,"test_display",1001,"0.0-10.0-2.19","08",152,6461,"1914231","405","mouse-reconstruction",3,"2833466166",-2
93,"test_display",1001,"0.0-10.0-2.20","32",110,6189,"1923430","408","mouse-reconstruction",3,"2833466166",17
339,"test_display",1000,"0.0-10.0-2.21","16",345,3595,"1930034","411","mouse-reconstruction",3,"2833466166",6
242,"test_display",1001,"0.0-10.0-2.22","04",295,4737,"1937780","414","mouse-reconstruction",3,"2833466166",53
246,"test_display",1000,"0.0-10.0-2.23","02",255,6427,"1947272","417","mouse-reconstruction",3,"2833466166",9
124,"test_display",1001,"0.0-10.0-2.24","16",127,5570,"1955862","420","mouse-reconstruction",3,"2833466166",3
183,"test_display",1001,"0.0-10.0-2.25","32",182,5550,"1964425","423","mouse-reconstruction",3,"2833466166",-1
336,"test_display",1001,"0.0-10.0-2.26","16",336,5792,"1973226","426","mouse-reconstruction",3,"2833466166",0
55,"test_display",1001,"0.0-10.0-2.27","32",44,7429,"1983666","429","mouse-reconstruction",3,"2833466166",-11
319,"test_display",1000,"0.0-10.0-2.28","08",323,3974,"1990650","432","mouse-reconstruction",3,"2833466166",4
13,"test_display",1000,"0.0-10.0-2.29","08",349,6207,"1999864","435","mouse-reconstruction",3,"2833466166",-24
332,"test_display",1001,"0.0-10.0-2.30","04",303,5729,"2008600","438","mouse-reconstruction",3,"2833466166",-29
75,"test_display",1001,"0.0-10.0-2.31","08",76,4381,"2016005","441","mouse-reconstruction",3,"2833466166",1
192,"test_display",1001,"0.0-10.0-2.32","04",191,6199,"2025217","444","mouse-reconstruction",3,"2833466166",-1
321,"test_display",1001,"0.0-10.0-2.33","16",321,9021,"2037248","447","mouse-reconstruction",3,"2833466166",0
333,"test_display",1002,"0.0-10.0-2.34","08",332,4216,"2044475","450","mouse-reconstruction",3,"2833466166",-1
168,"test_display",1001,"0.0-10.0-2.35","04",166,4793,"2052279","453","mouse-reconstruction",3,"2833466166",-2
191,"test_display",1002,"0.0-10.0-2.36","08",187,2471,"2057759","456","mouse-reconstruction",3,"2833466166",-4
50,"test_display",1001,"0.0-10.0-2.37","04",48,2099,"2062866","459","mouse-reconstruction",3,"2833466166",-2
258,"test_display",1000,"0.0-10.0-2.38","16",255,8545,"2074418","462","mouse-reconstruction",3,"2833466166",-3
134,"test_display",1001,"0.0-10.0-2.39","32",165,39254,"2116696","465","mouse-reconstruction",3,"2833466166",31
159,"test_display",1000,"0.0-10.0-2.40","16",160,12031,"2131738","468","mouse-reconstruction",3,"2833466166",1
287,"test_display",1001,"0.0-10.0-2.41","16",286,2122,"2136871","471","mouse-reconstruction",3,"2833466166",-1
76,"test_display",1002,"0.0-10.0-2.42","32",77,6024,"2145923","474","mouse-reconstruction",3,"2833466166",1
348,"test_display",1000,"0.0-10.0-2.43","16",348,5850,"2154799","477","mouse-reconstruction",3,"2833466166",0
42,"test_display",1001,"0.0-10.0-2.44","32",38,5331,"2163143","480","mouse-reconstruction",3,"2833466166",-4
145,"test_display",1000,"0.0-10.0-2.45","04",141,3666,"2169818","483","mouse-reconstruction",3,"2833466166",-4
254,"test_display",1000,"0.0-10.0-2.46","16",260,4881,"2177712","486","mouse-reconstruction",3,"2833466166",6
162,"test_display",1001,"0.0-10.0-2.47","02",155,6198,"2186922","489","mouse-reconstruction",3,"2833466166",-7
285,"test_display",1001,"0.0-10.0-2.48","02",359,5317,"2195248","492","mouse-reconstruction",3,"2833466166",74
253,"test_display",1001,"0.0-10.0-2.49","02",256,6965,"2205222","495","mouse-reconstruction",3,"2833466166",3
29,"test_display",1000,"0.0-10.0-2.50","08",24,2751,"2210998","498","mouse-reconstruction",3,"2833466166",-5
135,"test_display",1000,"0.0-10.0-2.51","32",135,6759,"2220770","501","mouse-reconstruction",3,"2833466166",0
265,"test_display",1001,"0.0-10.0-2.52","32",267,4167,"2227945","504","mouse-reconstruction",3,"2833466166",2
123,"test_display",1000,"0.0-10.0-2.53","02",123,5781,"2236737","507","mouse-reconstruction",3,"2833466166",0
277,"test_display",1000,"0.0-12.0-2.0","08",303,36838,"2278380","511","mouse-reconstruction",3,"2833466166",26
77,"test_display",1001,"0.0-12.0-2.1","04",74,7937,"2289341","514","mouse-reconstruction",3,"2833466166",-3
289,"test_display",1000,"0.0-12.0-2.2","08",292,3801,"2296152","517","mouse-reconstruction",3,"2833466166",3
128,"test_display",1000,"0.0-12.0-2.3","16",127,6875,"2306036","520","mouse-reconstruction",3,"2833466166",-1
123,"test_display",1001,"0.0-12.0-2.4","08",139,5521,"2314565","523","mouse-reconstruction",3,"2833466166",16
100,"test_display",1000,"0.0-12.0-2.5","32",101,1877,"2319453","526","mouse-reconstruction",3,"2833466166",1
279,"test_display",1001,"0.0-12.0-2.6","16",277,6267,"2328727","529","mouse-reconstruction",3,"2833466166",-2
77,"test_display",1001,"0.0-12.0-2.7","08",70,3226,"2334964","532","mouse-reconstruction",3,"2833466166",-7
152,"test_display",1025,"0.0-12.0-2.8","32",154,13259,"2351267","535","mouse-reconstruction",3,"2833466166",2
279,"test_display",1000,"0.0-12.0-2.9","04",247,2750,"2357040","538","mouse-reconstruction",3,"2833466166",-32
265,"test_display",1001,"0.0-12.0-2.10","04",288,2797,"2362847","541","mouse-reconstruction",3,"2833466166",23
211,"test_display",1002,"0.0-12.0-2.11","32",214,7104,"2372965","544","mouse-reconstruction",3,"2833466166",3
197,"test_display",1000,"0.0-12.0-2.12","16",201,25744,"2401720","547","mouse-reconstruction",3,"2833466166",4
70,"test_display",1000,"0.0-12.0-2.13","04",68,8592,"2413332","550","mouse-reconstruction",3,"2833466166",-2
342,"test_display",1001,"0.0-12.0-2.14","08",343,3333,"2419689","553","mouse-reconstruction",3,"2833466166",1
264,"test_display",999,"0.0-12.0-2.15","02",254,2718,"2425420","556","mouse-reconstruction",3,"2833466166",-10
22,"test_display",1001,"0.0-12.0-2.16","02",344,6631,"2435065","559","mouse-reconstruction",3,"2833466166",-38
132,"test_display",1001,"0.0-12.0-2.17","08",136,7759,"2445831","562","mouse-reconstruction",3,"2833466166",4
10,"test_display",1001,"0.0-12.0-2.18","02",17,3060,"2451902","565","mouse-reconstruction",3,"2833466166",7
163,"test_display",1000,"0.0-12.0-2.19","16",163,7312,"2462221","568","mouse-reconstruction",3,"2833466166",0
124,"test_display",1000,"0.0-12.0-2.20","04",126,6385,"2471613","571","mouse-reconstruction",3,"2833466166",2
209,"test_display",1000,"0.0-12.0-2.21","08",227,7707,"2482347","574","mouse-reconstruction",3,"2833466166",18
87,"test_display",1001,"0.0-12.0-2.22","02",70,6211,"2491572","577","mouse-reconstruction",3,"2833466166",-17
42,"test_display",1000,"0.0-12.0-2.23","08",50,4059,"2498641","580","mouse-reconstruction",3,"2833466166",8
261,"test_display",1000,"0.0-12.0-2.24","08",285,3215,"2504868","583","mouse-reconstruction",3,"2833466166",24
78,"test_display",1000,"0.0-12.0-2.25","16",72,11758,"2519637","586","mouse-reconstruction",3,"2833466166",-6
326,"test_display",1001,"0.0-12.0-2.26","32",326,4532,"2527178","589","mouse-reconstruction",3,"2833466166",0
239,"test_display",1001,"0.0-12.0-2.27","16",238,8601,"2538787","592","mouse-reconstruction",3,"2833466166",-1
333,"test_display",1001,"0.0-12.0-2.28","04",324,4749,"2546560","595","mouse-reconstruction",3,"2833466166",-9
286,"test_display",1000,"0.0-12.0-2.29","32",288,6999,"2556568","598","mouse-reconstruction",3,"2833466166",2
173,"test_display",1001,"0.0-12.0-2.30","02",171,11241,"2570818","601","mouse-reconstruction",3,"2833466166",-2
176,"test_display",1000,"0.0-12.0-2.31","08",169,7569,"2581399","604","mouse-reconstruction",3,"2833466166",-7
314,"test_display",1001,"0.0-12.0-2.32","32",308,5562,"2589969","607","mouse-reconstruction",3,"2833466166",-6
330,"test_display",1000,"0.0-12.0-2.33","02",351,6345,"2599325","610","mouse-reconstruction",3,"2833466166",21
305,"test_display",1001,"0.0-12.0-2.34","32",306,8730,"2611075","613","mouse-reconstruction",3,"2833466166",1
343,"test_display",1000,"0.0-12.0-2.35","08",351,7759,"2621858","616","mouse-reconstruction",3,"2833466166",8
86,"test_display",1001,"0.0-12.0-2.36","08",81,6120,"2630989","619","mouse-reconstruction",3,"2833466166",-5
99,"test_display",1001,"0.0-12.0-2.37","08",109,3414,"2637416","622","mouse-reconstruction",3,"2833466166",10
216,"test_display",1001,"0.0-12.0-2.38","16",219,5608,"2646030","625","mouse-reconstruction",3,"2833466166",3
108,"test_display",1002,"0.0-12.0-2.39","02",128,3287,"2652326","628","mouse-reconstruction",3,"2833466166",20
358,"test_display",1001,"0.0-12.0-2.40","04",5,5366,"2660701","631","mouse-reconstruction",3,"2833466166",7
325,"test_display",1000,"0.0-12.0-2.41","04",331,4486,"2668195","634","mouse-reconstruction",3,"2833466166",6
121,"test_display",1001,"0.0-12.0-2.42","16",132,4052,"2675279","637","mouse-reconstruction",3,"2833466166",11
81,"test_display",1001,"0.0-12.0-2.43","08",72,4542,"2682842","640","mouse-reconstruction",3,"2833466166",-9
212,"test_display",1001,"0.0-12.0-2.44","08",209,7088,"2692941","643","mouse-reconstruction",3,"2833466166",-3
99,"test_display",1000,"0.0-12.0-2.45","04",37,3809,"2699760","646","mouse-reconstruction",3,"2833466166",-62
185,"test_display",1002,"0.0-12.0-2.46","02",166,2720,"2705491","649","mouse-reconstruction",3,"2833466166",-19
117,"test_display",1113,"0.0-12.0-2.47","16",124,4509,"2713125","652","mouse-reconstruction",3,"2833466166",7
8,"test_display",1000,"0.0-12.0-2.48","02",15,7980,"2724113","655","mouse-reconstruction",3,"2833466166",7
66,"test_display",1000,"0.0-12.0-2.49","02",52,807,"2727927","658","mouse-reconstruction",3,"2833466166",-14
93,"test_display",1005,"0.0-12.0-2.50","16",95,8481,"2739419","661","mouse-reconstruction",3,"2833466166",2
75,"test_display",1001,"0.0-12.0-2.51","02",85,4922,"2747362","664","mouse-reconstruction",3,"2833466166",10
126,"test_display",1001,"0.0-12.0-2.52","04",128,2372,"2752745","667","mouse-reconstruction",3,"2833466166",2
171,"test_display",1001,"0.0-12.0-2.53","08",172,4629,"2760385","670","mouse-reconstruction",3,"2833466166",1
121,"test_display",1000,"0.0-14.0-2.0","02",114,4303,"2775464","674","mouse-reconstruction",3,"2833466166",-7
29,"test_display",1000,"0.0-14.0-2.1","32",30,6175,"2784649","677","mouse-reconstruction",3,"2833466166",1
229,"test_display",1001,"0.0-14.0-2.2","16",233,9979,"2797635","680","mouse-reconstruction",3,"2833466166",4
283,"test_display",1000,"0.0-14.0-2.3","32",289,8220,"2808877","683","mouse-reconstruction",3,"2833466166",6
309,"test_display",1000,"0.0-14.0-2.4","16",309,8972,"2820868","686","mouse-reconstruction",3,"2833466166",0
95,"test_display",1000,"0.0-14.0-2.5","16",82,7799,"2831677","689","mouse-reconstruction",3,"2833466166",-13
34,"test_display",1000,"0.0-14.0-2.6","08",32,10790,"2845479","692","mouse-reconstruction",3,"2833466166",-2
332,"test_display",1001,"0.0-14.0-2.7","32",330,3760,"2852249","695","mouse-reconstruction",3,"2833466166",-2
7,"test_display",1000,"0.0-14.0-2.8","32",7,3061,"2858316","698","mouse-reconstruction",3,"2833466166",0
24,"test_display",1001,"0.0-14.0-2.9","16",24,8175,"2869502","701","mouse-reconstruction",3,"2833466166",0
317,"test_display",1000,"0.0-14.0-2.10","02",350,3394,"2875918","704","mouse-reconstruction",3,"2833466166",33
190,"test_display",1001,"0.0-14.0-2.11","08",197,7720,"2886648","707","mouse-reconstruction",3,"2833466166",7
81,"test_display",1001,"0.0-14.0-2.12","32",82,6813,"2896472","710","mouse-reconstruction",3,"2833466166",1
150,"test_display",1000,"0.0-14.0-2.13","08",156,2619,"2902103","713","mouse-reconstruction",3,"2833466166",6
324,"test_display",1000,"0.0-14.0-2.14","02",214,3649,"2908763","716","mouse-reconstruction",3,"2833466166",-110
230,"test_display",1000,"0.0-14.0-2.15","32",230,4295,"2916067","719","mouse-reconstruction",3,"2833466166",0
230,"test_display",1001,"0.0-14.0-2.16","04",252,3681,"2922757","722","mouse-reconstruction",3,"2833466166",22
305,"test_display",1002,"0.0-14.0-2.17","04",317,3187,"2928950","725","mouse-reconstruction",3,"2833466166",12
281,"test_display",1001,"0.0-14.0-2.18","08",256,4659,"2936632","728","mouse-reconstruction",3,"2833466166",-25
100,"test_display",1000,"0.0-14.0-2.19","08",109,1194,"2940848","731","mouse-reconstruction",3,"2833466166",9
184,"test_display",1000,"0.0-14.0-2.20","16",179,13118,"2956984","734","mouse-reconstruction",3,"2833466166",-5
170,"test_display",999,"0.0-14.0-2.21","04",169,3685,"2963678","737","mouse-reconstruction",3,"2833466166",-1
158,"test_display",1001,"0.0-14.0-2.22","16",157,6794,"2973483","740","mouse-reconstruction",3,"2833466166",-1
327,"test_display",1001,"0.0-14.0-2.23","08",327,5152,"2981650","743","mouse-reconstruction",3,"2833466166",0
70,"test_display",1001,"0.0-14.0-2.24","02",70,2569,"2987228","746","mouse-reconstruction",3,"2833466166",0
184,"test_display",1001,"0.0-14.0-2.25","02",189,6259,"2996497","749","mouse-reconstruction",3,"2833466166",5
357,"test_display",1000,"0.0-14.0-2.26","04",352,1157,"3000678","752","mouse-reconstruction",3,"2833466166",-5
259,"test_display",1000,"0.0-14.0-2.27","16",261,1906,"3005612","755","mouse-reconstruction",3,"2833466166",2
131,"test_display",1001,"0.0-14.0-2.28","08",133,2045,"3010684","758","mouse-reconstruction",3,"2833466166",2
356,"test_display",1000,"0.0-14.0-2.29","08",349,4648,"3018355","761","mouse-reconstruction",3,"2833466166",-7
284,"test_display",1000,"0.0-14.0-2.30","02",251,2853,"3024235","764","mouse-reconstruction",3,"2833466166",-33
122,"test_display",1001,"0.0-14.0-2.31","04",124,2950,"3030196","767","mouse-reconstruction",3,"2833466166",2
277,"test_display",1001,"0.0-14.0-2.32","32",285,8644,"3041851","770","mouse-reconstruction",3,"2833466166",8
73,"test_display",1002,"0.0-14.0-2.33","04",58,7840,"3052703","773","mouse-reconstruction",3,"2833466166",-15
81,"test_display",1001,"0.0-14.0-2.34","04",94,1142,"3056855","776","mouse-reconstruction",3,"2833466166",13
341,"test_display",1001,"0.0-14.0-2.35","16",341,13074,"3072937","779","mouse-reconstruction",3,"2833466166",0
359,"test_display",1000,"0.0-14.0-2.36","32",3,5187,"3081150","782","mouse-reconstruction",3,"2833466166",4
20,"test_display",1000,"0.0-14.0-2.37","16",10,7639,"3091799","785","mouse-reconstruction",3,"2833466166",-10
27,"test_display",1000,"0.0-14.0-2.38","02",342,3433,"3098240","788","mouse-reconstruction",3,"2833466166",-45
